Folder: optimizationPaper/results/E_Glass/1Mass_DSC_BT

Note: results/E_Glass/1Mass_DSC_BT/E_Glass_linear_dsc_M_BT_solution.txt
A	 = 2.76e+12,
C0	 = 1.0,0.0,
Cpa	 = 1042.49252407,1134.64192632,
Cpb	 = 0.0434845582616,0.116985946025,
E	 = 1.82e+05,
Hp	 = 101867.34089,
K	 = 20605.5813663,100000000.0,
Value	 = 1.49282759324e-06,
Xi	 = 0.733808674985,
eps	 = 0.916807392494,0.94,
ka	 = 0.303741371421,0.245058785721,
kb	 = 3.51162446655e-05,7.15634182574e-05,
n	 = 0.994751291013,
nO2	 = 0.0,
rho	 = 1683.0,1235.0,

File: E_Glass_linear_dsc_M_BT_0_cone_Bh.csv
# Time [s], Convective Heat Transfer Coefficient [W/m2K]
0.000000000000000000e+00,0.000000000000000000e+00
7,0.0584972
14,0.435131
21,1.05845
28,1.72184
35,2.34719
42,2.91603
49,3.42862
56,3.89042
63,4.30777
70,4.68662
77,5.03212
84,5.34866
91,5.63992
98,5.909
105,6.15851
112,6.39067
119,6.60735
126,6.81018
133,7.00054
140,7.17964
147,7.34853
154,7.50813
161,7.65925
168,7.80261
175,7.93882
182,8.06845
189,8.19199
196,8.30987
203,8.42249
210,8.53019
217,8.63329
224,8.73207
231,8.82678
238,8.91765
245,9.00487
252,9.08863
259,9.1691
266,9.24641
273,9.32071
280,9.39211
287,9.46073
294,9.52665
301,9.58997
308,9.65077
315,9.7091
322,9.76502
329,9.81858
336,9.86982
343,9.91877
350,9.96547
357,10.0099
364,10.0522
371,10.0923
378,10.1302
385,10.1661
392,10.1998
399,10.2315
406,10.2613
413,10.2891
420,10.3151
427,10.3392
434,10.3617
441,10.3826
448,10.4019
455,10.4199
462,10.4366
469,10.4521
476,10.4665
483,10.48
490,10.4926
497,10.5045
504,10.5157
511,10.5263
518,10.5364
525,10.5461
532,10.5555
539,10.5646
546,10.5734
553,10.5821
560,10.5907
567,10.5991
574,10.6076
581,10.6159
588,10.6243
595,10.6328
602,10.6413
609,10.6498
616,10.6585
623,10.6673
630,10.6762
637,10.6853
644,10.6946
651,10.704
658,10.7137
665,10.7236
672,10.7337
679,10.744
686,10.7546
693,10.7655
700,10.7767
707,10.7882
714,10.8001
721,10.8123
728,10.8249
735,10.8379
742,10.8513
749,10.8651
756,10.8794
763,10.8941
770,10.9093
777,10.925
784,10.9412
791,10.9579
798,10.9751
805,10.9927
812,11.0108
819,11.0293
826,11.0481
833,11.0671
840,11.0863
847,11.1055
854,11.1247
861,11.1436
868,11.1623
875,11.1805
882,11.1981
889,11.2152
896,11.2317
903,11.2476
910,11.2628
917,11.2775
924,11.2915
931,11.3051
938,11.3181
945,11.3307
952,11.3428
959,11.3545
966,11.3658
973,11.3767
980,11.3872
987,11.3974
994,11.4072
1000,11.4154
1010,11.4285
1020,11.441
1020,11.441
1030,11.4529
1040,11.4643
1040,11.4643
1050,11.4751
1060,11.4854
1060,11.4854
1070,11.4953
1080,11.5046
1090,11.5136
1090,11.5136
1100,11.5221
1110,11.5302
1110,11.5302
1120,11.538
1130,11.5454
1130,11.5454
1140,11.5524
1150,11.5592
1160,11.5656
1160,11.5656
1170,11.5717
1180,11.5775
1180,11.5775
1190,11.5831
1200,11.5884
1200,11.5884
1210,11.5934
1220,11.5982
1230,11.6028
1230,11.6028
1240,11.6072
1250,11.6114
1250,11.6114
1260,11.6154
1270,11.6192
1270,11.6192
1280,11.6228
1290,11.6263
1300,11.6296
1300,11.6296
1310,11.6327
1320,11.6357
1320,11.6357
1330,11.6386
1340,11.6413
1340,11.6413
1350,11.6439
1360,11.6464
1370,11.6488
1370,11.6488
1380,11.651
1390,11.6532
1390,11.6532
1400,11.6553
1410,11.6572
1410,11.6572
1420,11.6591
1430,11.6609
1440,11.6626
1440,11.6626
1450,11.6642
1460,11.6657
1460,11.6657
1470,11.6672
1480,11.6686
1480,11.6686
1490,11.67
1500,11.6713
1510,11.6725
1510,11.6725
1520,11.6736
1530,11.6748
1530,11.6748
1540,11.6758
1550,11.6768
1550,11.6768
1560,11.6778
1570,11.6787
1580,11.6796
1580,11.6796
1590,11.6804
1600,11.6812
1600,11.6812
1610,11.682
1620,11.6827
1620,11.6827
1630,11.6834
1640,11.6841
1650,11.6847
1650,11.6847
1660,11.6853
1670,11.6859
1670,11.6859
1680,11.6864
1690,11.687
1690,11.687
1700,11.6875
1710,11.6879
1720,11.6884
1720,11.6884
1730,11.6888
1740,11.6892
1740,11.6892
1750,11.6896
1760,11.69
1760,11.69
1770,11.6904
1780,11.6907
1790,11.691
1790,11.691
1800,11.6913
1800,11.6913

File: E_Glass_linear_dsc_M_BT_0_cone_BT.csv
# Time [s], Temperature [C]
0.000000000000000000e+00,25
7,25.0001
14,25.0235
21,25.3377
28,26.4536
35,28.6822
42,32.0607
49,36.477
56,41.7671
63,47.7629
70,54.3122
77,61.2847
84,68.5717
91,76.0844
98,83.7505
105,91.5115
112,99.3204
119,107.14
126,114.938
133,122.693
140,130.385
147,137.998
154,145.522
161,152.947
168,160.266
175,167.475
182,174.568
189,181.544
196,188.4
203,195.134
210,201.744
217,208.231
224,214.593
231,220.829
238,226.939
245,232.923
252,238.779
259,244.507
266,250.107
273,255.577
280,260.917
287,266.125
294,271.201
301,276.143
308,280.95
315,285.619
322,290.148
329,294.535
336,298.777
343,302.871
350,306.814
357,310.603
364,314.237
371,317.711
378,321.025
385,324.178
392,327.168
399,329.996
406,332.663
413,335.171
420,337.524
427,339.727
434,341.784
441,343.702
448,345.489
455,347.153
462,348.703
469,350.147
476,351.496
483,352.758
490,353.942
497,355.059
504,356.115
511,357.119
518,358.079
525,359.001
532,359.892
539,360.758
546,361.603
553,362.433
560,363.252
567,364.064
574,364.871
581,365.679
588,366.488
595,367.302
602,368.123
609,368.953
616,369.794
623,370.648
630,371.517
637,372.403
644,373.307
651,374.23
658,375.176
665,376.144
672,377.137
679,378.157
686,379.205
693,380.283
700,381.394
707,382.538
714,383.718
721,384.937
728,386.195
735,387.496
742,388.842
749,390.234
756,391.676
763,393.168
770,394.713
777,396.312
784,397.966
791,399.675
798,401.44
805,403.258
812,405.127
819,407.042
826,408.998
833,410.987
840,412.998
847,415.021
854,417.042
861,419.049
868,421.029
875,422.969
882,424.859
889,426.694
896,428.467
903,430.178
910,431.827
917,433.415
924,434.946
931,436.422
938,437.847
945,439.223
952,440.554
959,441.84
966,443.085
973,444.29
980,445.456
987,446.586
994,447.679
1000,448.589
1010,450.05
1020,451.446
1020,451.446
1030,452.779
1040,454.053
1040,454.053
1050,455.269
1060,456.431
1060,456.431
1070,457.54
1080,458.6
1090,459.611
1090,459.611
1100,460.578
1110,461.5
1110,461.5
1120,462.381
1130,463.222
1130,463.222
1140,464.025
1150,464.792
1160,465.524
1160,465.524
1170,466.223
1180,466.89
1180,466.89
1190,467.526
1200,468.134
1200,468.134
1210,468.714
1220,469.268
1230,469.797
1230,469.797
1240,470.301
1250,470.782
1250,470.782
1260,471.242
1270,471.68
1270,471.68
1280,472.099
1290,472.498
1300,472.88
1300,472.88
1310,473.243
1320,473.59
1320,473.59
1330,473.922
1340,474.238
1340,474.238
1350,474.539
1360,474.827
1370,475.102
1370,475.102
1380,475.364
1390,475.614
1390,475.614
1400,475.853
1410,476.08
1410,476.08
1420,476.297
1430,476.505
1440,476.702
1440,476.702
1450,476.891
1460,477.071
1460,477.071
1470,477.243
1480,477.407
1480,477.407
1490,477.563
1500,477.712
1510,477.855
1510,477.855
1520,477.991
1530,478.12
1530,478.12
1540,478.244
1550,478.362
1550,478.362
1560,478.474
1570,478.581
1580,478.684
1580,478.684
1590,478.782
1600,478.875
1600,478.875
1610,478.964
1620,479.048
1620,479.048
1630,479.129
1640,479.207
1650,479.28
1650,479.28
1660,479.351
1670,479.418
1670,479.418
1680,479.482
1690,479.543
1690,479.543
1700,479.601
1710,479.656
1720,479.709
1720,479.709
1730,479.76
1740,479.808
1740,479.808
1750,479.854
1760,479.898
1760,479.898
1770,479.94
1780,479.98
1790,480.018
1790,480.018
1800,480.054
1800,480.054

File: E_Glass_linear_dsc_M_BT_0_cone_FT.csv
# Time [s], Temperature [C]
0.000000000000000000e+00,25
7,90.8102
14,124.497
21,148.135
28,166.754
35,182.218
42,195.468
49,207.064
56,217.378
63,226.673
70,235.149
77,242.957
84,250.222
91,257.038
98,263.48
105,269.599
112,275.428
119,280.994
126,286.317
133,291.423
140,296.332
147,301.065
154,305.638
161,310.065
168,314.357
175,318.52
182,322.562
189,326.486
196,330.296
203,333.995
210,337.582
217,341.06
224,344.43
231,347.69
238,350.841
245,353.886
252,356.82
259,359.645
266,362.367
273,364.98
280,367.487
287,369.899
294,372.208
301,374.422
308,376.554
315,378.596
322,380.558
329,382.456
336,384.28
343,386.043
350,387.76
357,389.42
364,391.034
371,392.618
378,394.157
385,395.662
392,397.145
399,398.591
406,400.009
413,401.406
420,402.77
427,404.107
434,405.419
441,406.698
448,407.947
455,409.168
462,410.355
469,411.51
476,412.634
483,413.724
490,414.783
497,415.811
504,416.808
511,417.776
518,418.716
525,419.629
532,420.515
539,421.378
546,422.217
553,423.035
560,423.832
567,424.61
574,425.37
581,426.113
588,426.84
595,427.552
602,428.25
609,428.936
616,429.61
623,430.272
630,430.924
637,431.567
644,432.202
651,432.828
658,433.447
665,434.06
672,434.667
679,435.268
686,435.866
693,436.459
700,437.049
707,437.637
714,438.223
721,438.808
728,439.392
735,439.976
742,440.56
749,441.146
756,441.734
763,442.324
770,442.917
777,443.514
784,444.115
791,444.721
798,445.332
805,445.948
812,446.571
819,447.2
826,447.835
833,448.476
840,449.124
847,449.777
854,450.434
861,451.095
868,451.759
875,452.423
882,453.086
889,453.746
896,454.401
903,455.049
910,455.688
917,456.316
924,456.931
931,457.533
938,458.12
945,458.692
952,459.249
959,459.79
966,460.315
973,460.825
980,461.319
987,461.798
994,462.262
1000,462.648
1010,463.269
1020,463.861
1020,463.861
1030,464.428
1040,464.968
1040,464.968
1050,465.485
1060,465.978
1060,465.978
1070,466.449
1080,466.898
1090,467.327
1090,467.327
1100,467.736
1110,468.127
1110,468.127
1120,468.5
1130,468.856
1130,468.856
1140,469.196
1150,469.521
1160,469.831
1160,469.831
1170,470.126
1180,470.408
1180,470.408
1190,470.677
1200,470.934
1200,470.934
1210,471.179
1220,471.413
1230,471.637
1230,471.637
1240,471.85
1250,472.053
1250,472.053
1260,472.247
1270,472.432
1270,472.432
1280,472.609
1290,472.777
1300,472.938
1300,472.938
1310,473.092
1320,473.238
1320,473.238
1330,473.378
1340,473.511
1340,473.511
1350,473.638
1360,473.76
1370,473.876
1370,473.876
1380,473.986
1390,474.091
1390,474.091
1400,474.192
1410,474.288
1410,474.288
1420,474.38
1430,474.467
1440,474.55
1440,474.55
1450,474.63
1460,474.706
1460,474.706
1470,474.778
1480,474.847
1480,474.847
1490,474.913
1500,474.976
1510,475.036
1510,475.036
1520,475.093
1530,475.148
1530,475.148
1540,475.2
1550,475.249
1550,475.249
1560,475.297
1570,475.342
1580,475.385
1580,475.385
1590,475.426
1600,475.466
1600,475.466
1610,475.503
1620,475.539
1620,475.539
1630,475.573
1640,475.605
1650,475.636
1650,475.636
1660,475.666
1670,475.694
1670,475.694
1680,475.721
1690,475.747
1690,475.747
1700,475.771
1710,475.795
1720,475.817
1720,475.817
1730,475.838
1740,475.858
1740,475.858
1750,475.878
1760,475.896
1760,475.896
1770,475.914
1780,475.931
1790,475.947
1790,475.947
1800,475.962
1800,475.962

File: E_Glass_linear_dsc_M_BT_0_cone_Mass.csv
# Time [s], Mass [Kg]
0.000000000000000000e+00,1
7,1
14,1
21,1
28,1
35,1
42,1
49,1
56,1
63,1
70,1
77,1
84,1
91,0.999999
98,0.999999
105,0.999998
112,0.999996
119,0.999994
126,0.99999
133,0.999984
140,0.999977
147,0.999965
154,0.99995
161,0.999929
168,0.9999
175,0.999862
182,0.999812
189,0.999746
196,0.999661
203,0.999553
210,0.999415
217,0.999243
224,0.999028
231,0.998763
238,0.99844
245,0.998048
252,0.997578
259,0.997019
266,0.99636
273,0.995589
280,0.994695
287,0.993666
294,0.992493
301,0.991166
308,0.989675
315,0.988014
322,0.986175
329,0.984153
336,0.981945
343,0.979547
350,0.976959
357,0.97418
364,0.971211
371,0.968055
378,0.964714
385,0.961195
392,0.957502
399,0.953643
406,0.949625
413,0.945459
420,0.941153
427,0.936721
434,0.932173
441,0.927523
448,0.922783
455,0.917968
462,0.913091
469,0.908166
476,0.903204
483,0.89822
490,0.893226
497,0.888231
504,0.883248
511,0.878284
518,0.87335
525,0.868452
532,0.863599
539,0.858795
546,0.854047
553,0.849359
560,0.844735
567,0.840178
574,0.835693
581,0.831281
588,0.826945
595,0.822687
602,0.818508
609,0.814411
616,0.810396
623,0.806466
630,0.802621
637,0.798863
644,0.795192
651,0.791611
658,0.78812
665,0.784721
672,0.781415
679,0.778205
686,0.775091
693,0.772076
700,0.76916
707,0.766348
714,0.76364
721,0.761038
728,0.758546
735,0.756166
742,0.753901
749,0.751752
756,0.749723
763,0.747817
770,0.746036
777,0.744382
784,0.742858
791,0.741464
798,0.740203
805,0.739073
812,0.738073
819,0.737203
826,0.736456
833,0.735828
840,0.735312
847,0.734897
854,0.734574
861,0.734329
868,0.73415
875,0.734024
882,0.733939
889,0.733884
896,0.73385
903,0.733831
910,0.73382
917,0.733814
924,0.733811
931,0.73381
938,0.733809
945,0.733809
952,0.733809
959,0.733809
966,0.733809
973,0.733809
980,0.733809
987,0.733809
994,0.733809
1000,0.733809
1010,0.733809
1020,0.733809
1020,0.733809
1030,0.733809
1040,0.733809
1040,0.733809
1050,0.733809
1060,0.733809
1060,0.733809
1070,0.733809
1080,0.733809
1090,0.733809
1090,0.733809
1100,0.733809
1110,0.733809
1110,0.733809
1120,0.733809
1130,0.733809
1130,0.733809
1140,0.733809
1150,0.733809
1160,0.733809
1160,0.733809
1170,0.733809
1180,0.733809
1180,0.733809
1190,0.733809
1200,0.733809
1200,0.733809
1210,0.733809
1220,0.733809
1230,0.733809
1230,0.733809
1240,0.733809
1250,0.733809
1250,0.733809
1260,0.733809
1270,0.733809
1270,0.733809
1280,0.733809
1290,0.733809
1300,0.733809
1300,0.733809
1310,0.733809
1320,0.733809
1320,0.733809
1330,0.733809
1340,0.733809
1340,0.733809
1350,0.733809
1360,0.733809
1370,0.733809
1370,0.733809
1380,0.733809
1390,0.733809
1390,0.733809
1400,0.733809
1410,0.733809
1410,0.733809
1420,0.733809
1430,0.733809
1440,0.733809
1440,0.733809
1450,0.733809
1460,0.733809
1460,0.733809
1470,0.733809
1480,0.733809
1480,0.733809
1490,0.733809
1500,0.733809
1510,0.733809
1510,0.733809
1520,0.733809
1530,0.733809
1530,0.733809
1540,0.733809
1550,0.733809
1550,0.733809
1560,0.733809
1570,0.733809
1580,0.733809
1580,0.733809
1590,0.733809
1600,0.733809
1600,0.733809
1610,0.733809
1620,0.733809
1620,0.733809
1630,0.733809
1640,0.733809
1650,0.733809
1650,0.733809
1660,0.733809
1670,0.733809
1670,0.733809
1680,0.733809
1690,0.733809
1690,0.733809
1700,0.733809
1710,0.733809
1720,0.733809
1720,0.733809
1730,0.733809
1740,0.733809
1740,0.733809
1750,0.733809
1760,0.733809
1760,0.733809
1770,0.733809
1780,0.733809
1790,0.733809
1790,0.733809
1800,0.733809
1800,0.733809

File: E_Glass_linear_dsc_M_BT_progressMonitor.csv
Loop,Time,r0-A,p0-C0,p1-C0,p0-Cpa,p1-Cpa,p0-Cpb,p1-Cpb,r0-E,r0-Hp,p0-K,p1-K,Value,r0-Xi,p0-eps,p1-eps,p0-ka,p1-ka,p0-kb,p1-kb,r0-n,r0-nO2,p0-rho,p1-rho,
-1,0,4.11e+12,1.0,0.0,1090.65,4155.73,0.0445593,0.427748,1.78e+05,51145.9,14133.7,100000000.0,0.00170291,0.733809,0.88122,0.94,0.292494,0.158737,0.000152352,0.000184622,2.4102,0.0,1683.0,1235.0,
4,876.3286,3.39e+12,1.0,0.0,1088.44,1920.49,0.0435307,0.523407,1.76e+05,89225.4,15738.1,100000000.0,0.000438444,0.733809,0.758343,0.94,0.533848,0.0905039,7.28427e-05,0.000672837,1.90977,0.0,1683.0,1235.0,
9,1842.46,5.26e+12,1.0,0.0,1065.67,1179.88,0.044163,0.591048,1.82e+05,128327,13142,100000000.0,0.000176788,0.733809,0.847646,0.94,0.367111,0.0970914,7.79634e-05,0.000687305,1.4782,0.0,1683.0,1235.0,
14,2753.55,8.44e+12,1.0,0.0,983.405,1054.75,0.0458196,0.645405,1.88e+05,126952,14536,100000000.0,4.44386e-05,0.733809,0.885759,0.94,0.268554,0.162501,6.45042e-05,0.000466125,1.04647,0.0,1683.0,1235.0,
19,3629.45,8.71e+12,1.0,0.0,974.741,1030.94,0.0460911,0.645919,1.88e+05,123862,14951,100000000.0,3.77767e-05,0.733809,0.880602,0.94,0.26363,0.171001,6.35453e-05,0.000418901,0.998997,0.0,1683.0,1235.0,
24,4426.26,8.81e+12,1.0,0.0,972.14,1007.59,0.0461576,0.651499,1.88e+05,123161,15221.3,100000000.0,3.57536e-05,0.733809,0.879364,0.94,0.261999,0.169773,6.43971e-05,0.000402017,0.985006,0.0,1683.0,1235.0,
29,5207.02,8.00e+12,1.0,0.0,973.723,934.675,0.0443841,0.642603,1.87e+05,115701,18250,100000000.0,2.82839e-05,0.733809,0.874196,0.94,0.267517,0.101182,6.2997e-05,0.000409693,1.03606,0.0,1683.0,1235.0,
34,6072.82,7.70e+12,1.0,0.0,975.956,832.658,0.0425018,0.694077,1.87e+05,109789,21752.5,100000000.0,1.98573e-05,0.733809,0.875477,0.94,0.267267,0.0243561,6.33192e-05,0.000459684,1.00921,0.0,1683.0,1235.0,
39,6824.32,7.80e+12,1.0,0.0,972.909,820.134,0.0424175,0.688585,1.87e+05,107508,21886,100000000.0,1.7276e-05,0.733809,0.870232,0.94,0.26788,0.0265913,6.2129e-05,0.000439724,1.02136,0.0,1683.0,1235.0,
44,7602.97,7.74e+12,1.0,0.0,973.378,793.558,0.0416023,0.675567,1.87e+05,103862,25165.1,100000000.0,1.42009e-05,0.733809,0.869278,0.94,0.276286,0.0260052,4.66541e-05,0.000410943,1.04006,0.0,1683.0,1235.0,
49,8448.83,8.21e+12,1.0,0.0,972.144,724.194,0.0406818,0.703191,1.88e+05,100547,29925.8,100000000.0,9.30222e-06,0.733809,0.869407,0.94,0.281962,0.0241077,3.16222e-05,0.000379825,1.04052,0.0,1683.0,1235.0,
54,9319.88,8.25e+12,1.0,0.0,972.298,715.193,0.0406941,0.707924,1.88e+05,100051,30085.8,100000000.0,6.67622e-06,0.733809,0.870224,0.94,0.281279,0.0248427,3.15408e-05,0.000374206,1.01915,0.0,1683.0,1235.0,
59,10192.1,8.09e+12,1.0,0.0,972.969,726.519,0.0407181,0.697866,1.88e+05,100172,29667.6,100000000.0,6.40808e-06,0.733809,0.871606,0.94,0.280895,0.0246685,3.13498e-05,0.000376804,1.0177,0.0,1683.0,1235.0,
64,11084.7,8.08e+12,1.0,0.0,973.251,725.636,0.0406904,0.696502,1.88e+05,100021,29882.9,100000000.0,6.3559e-06,0.733809,0.871936,0.94,0.2815,0.0258169,3.01194e-05,0.000373835,1.01498,0.0,1683.0,1235.0,
69,11958.5,7.86e+12,1.0,0.0,974.384,737.324,0.040683,0.683556,1.88e+05,100124,29455.1,100000000.0,6.26971e-06,0.733809,0.872801,0.94,0.282174,0.0241864,2.93943e-05,0.000377811,1.01366,0.0,1683.0,1235.0,
74,12873.5,7.57e+12,1.0,0.0,976.203,753.444,0.040684,0.665959,1.87e+05,100258,29027.3,100000000.0,6.18664e-06,0.733809,0.874297,0.94,0.283495,0.0237549,2.75853e-05,0.000380573,1.00773,0.0,1683.0,1235.0,
79,13814.3,7.51e+12,1.0,0.0,976.528,756.794,0.0406852,0.66211,1.87e+05,100279,28930.7,100000000.0,6.18179e-06,0.733809,0.874589,0.94,0.283739,0.0237332,2.72413e-05,0.000380963,1.00691,0.0,1683.0,1235.0,
84,14758.3,7.50e+12,1.0,0.0,976.475,758.451,0.0407014,0.660809,1.87e+05,100333,28810.3,100000000.0,6.1749e-06,0.733809,0.874671,0.94,0.283515,0.0237293,2.75323e-05,0.000381479,1.0071,0.0,1683.0,1235.0,
89,15683.6,7.51e+12,1.0,0.0,976.317,757.196,0.0407047,0.661913,1.87e+05,100301,28820.2,100000000.0,6.17092e-06,0.733809,0.874532,0.94,0.283389,0.023728,2.77483e-05,0.000381076,1.00721,0.0,1683.0,1235.0,
94,16528.5,7.49e+12,1.0,0.0,976.401,758.632,0.0407129,0.660368,1.87e+05,100316,28742.9,100000000.0,6.16824e-06,0.733809,0.874663,0.94,0.283368,0.023725,2.77534e-05,0.000381268,1.00629,0.0,1683.0,1235.0,
99,17372,7.48e+12,1.0,0.0,976.357,759.434,0.0407283,0.659757,1.87e+05,100355,28651.3,100000000.0,6.16546e-06,0.733809,0.874649,0.94,0.283218,0.0237257,2.80442e-05,0.000381551,1.00628,0.0,1683.0,1235.0,
104,18242.6,2.58e+12,1.0,0.0,1006,1203.3,0.0407095,0.0747064,1.82e+05,104902,17416.7,100000000.0,6.12552e-06,0.733809,0.895355,0.94,0.289314,0.228218,3.40824e-05,0.000122578,0.972809,0.0,1683.0,1235.0,
109,19126.5,2.58e+12,1.0,0.0,1006,1203.3,0.0407095,0.0747064,1.82e+05,104902,17416.7,100000000.0,6.12552e-06,0.733809,0.895355,0.94,0.289314,0.228218,3.40824e-05,0.000122578,0.972809,0.0,1683.0,1235.0,
114,20072.1,2.57e+12,1.0,0.0,1006.99,1197.69,0.0406807,0.0801917,1.82e+05,104775,17706.9,100000000.0,5.80257e-06,0.733809,0.896201,0.94,0.289809,0.228845,3.37029e-05,0.000120695,0.971388,0.0,1683.0,1235.0,
119,20935.7,2.53e+12,1.0,0.0,1006.27,1193.16,0.0406824,0.0782808,1.82e+05,104332,17865.2,100000000.0,5.29653e-06,0.733809,0.895114,0.94,0.290163,0.233219,3.32639e-05,0.000110095,0.980005,0.0,1683.0,1235.0,
124,21735.3,2.53e+12,1.0,0.0,1007.08,1186.26,0.0406807,0.0807203,1.82e+05,103713,17883,100000000.0,5.02043e-06,0.733809,0.895563,0.94,0.29205,0.235627,2.9944e-05,0.000101723,0.979478,0.0,1683.0,1235.0,
129,22569.9,2.53e+12,1.0,0.0,1006.98,1184.44,0.0406802,0.0801981,1.82e+05,103542,17848.7,100000000.0,4.81202e-06,0.733809,0.895225,0.94,0.292285,0.236412,2.95971e-05,9.91443e-05,0.980052,0.0,1683.0,1235.0,
134,23454.3,4.12e+12,1.0,0.0,990.228,1084.79,0.0413154,0.20479,1.84e+05,102096,17764.1,100000000.0,4.26708e-06,0.733809,0.883913,0.94,0.28564,0.167352,3.16573e-05,0.000186642,0.996797,0.0,1683.0,1235.0,
139,24410.1,4.12e+12,1.0,0.0,990.228,1084.79,0.0413154,0.20479,1.84e+05,102096,17764.1,100000000.0,4.26708e-06,0.733809,0.883913,0.94,0.28564,0.167352,3.16573e-05,0.000186642,0.996797,0.0,1683.0,1235.0,
144,25362.2,4.12e+12,1.0,0.0,990.228,1084.79,0.0413154,0.20479,1.84e+05,102096,17764.1,100000000.0,4.26708e-06,0.733809,0.883913,0.94,0.28564,0.167352,3.16573e-05,0.000186642,0.996797,0.0,1683.0,1235.0,
149,26292.5,4.12e+12,1.0,0.0,990.228,1084.79,0.0413154,0.20479,1.84e+05,102096,17764.1,100000000.0,4.26708e-06,0.733809,0.883913,0.94,0.28564,0.167352,3.16573e-05,0.000186642,0.996797,0.0,1683.0,1235.0,
154,27246.9,3.79e+12,1.0,0.0,997.582,1118.71,0.0412467,0.152047,1.84e+05,102145,17982.4,100000000.0,3.36131e-06,0.733809,0.887476,0.94,0.287278,0.191706,3.51011e-05,0.000150817,0.992636,0.0,1683.0,1235.0,
159,28109,3.69e+12,1.0,0.0,1003.86,1168.48,0.0413268,0.075148,1.84e+05,102084,17814.5,100000000.0,2.70956e-06,0.733809,0.890905,0.94,0.288956,0.226345,3.67695e-05,9.9382e-05,0.995305,0.0,1683.0,1235.0,
164,28951.9,3.36e+12,1.0,0.0,1009.29,1179.27,0.0412634,0.0653636,1.83e+05,102326,19518.5,100000000.0,2.38512e-06,0.733809,0.895186,0.94,0.291603,0.228942,3.47843e-05,9.84042e-05,0.99242,0.0,1683.0,1235.0,
169,29771.6,3.22e+12,1.0,0.0,1012.24,1175.75,0.0412861,0.0671605,1.83e+05,102146,20138.6,100000000.0,2.18762e-06,0.733809,0.896791,0.94,0.292869,0.227743,3.46948e-05,9.87075e-05,0.99289,0.0,1683.0,1235.0,
174,30745,3.02e+12,1.0,0.0,1018.96,1179.47,0.0415431,0.0656453,1.82e+05,102279,21141.9,100000000.0,1.98235e-06,0.733809,0.90139,0.94,0.295446,0.2247,3.43881e-05,0.000104878,0.992092,0.0,1683.0,1235.0,
179,31543.6,2.85e+12,1.0,0.0,1029.46,1176.86,0.0416162,0.0658389,1.82e+05,101907,22898.9,100000000.0,1.74469e-06,0.733809,0.907877,0.94,0.299479,0.214658,3.43191e-05,0.000117167,0.993885,0.0,1683.0,1235.0,
184,32371,2.86e+12,1.0,0.0,1034.12,1178.91,0.0414586,0.0657263,1.82e+05,101853,24130,100000000.0,1.6888e-06,0.733809,0.91092,0.94,0.30165,0.206512,3.32161e-05,0.00012965,0.994095,0.0,1683.0,1235.0,
189,33219.3,2.79e+12,1.0,0.0,1037.24,1173.82,0.0421582,0.0702687,1.82e+05,101977,22977,100000000.0,1.6067e-06,0.733809,0.913162,0.94,0.302287,0.223877,3.41454e-05,0.000104673,0.993575,0.0,1683.0,1235.0,
194,34015.4,2.74e+12,1.0,0.0,1043.3,1135.24,0.0435017,0.118043,1.82e+05,101977,20821,100000000.0,1.52308e-06,0.733809,0.917446,0.94,0.303943,0.245405,3.52245e-05,7.20654e-05,0.993999,0.0,1683.0,1235.0,
199,34820.5,2.76e+12,1.0,0.0,1042.49,1134.64,0.0434846,0.116986,1.82e+05,101867,20605.6,100000000.0,1.49283e-06,0.733809,0.916807,0.94,0.303741,0.245059,3.51162e-05,7.15634e-05,0.994751,0.0,1683.0,1235.0,