Folder: optimizationPaper/results/E_Glass/1Mass_DSC

Note: results/E_Glass/1Mass_DSC/E_Glass_linear_dsc_M_solution.txt
A	 = 4.32e+12,
C0	 = 1.0,0.0,
Cpa	 = 1054.07922114,2525.6758118,
Cpb	 = 0.0406841999164,0.729842603866,
E	 = 1.77e+05,
Hp	 = 125218.609706,
K	 = 13051.0419462,100000000.0,
Value	 = 5.51752092243e-06,
Xi	 = 0.733808674985,
eps	 = 0.807351193647,0.94,
ka	 = 0.208262891084,0.0900348579126,
kb	 = 0.000174792795077,0.000560461762705,
n	 = 0.943669673204,
nO2	 = 0.0,
rho	 = 1683.0,1235.0,

File: E_Glass_linear_dsc_M_0_cone_Bh.csv
# Time [s], Convective Heat Transfer Coefficient [W/m2K]
0.000000000000000000e+00,0.000000000000000000e+00
7,0.0304
14,0.26601
21,0.736661
28,1.29384
35,1.85226
42,2.38041
49,2.86923
56,3.31826
63,3.73008
70,4.1082
77,4.45615
84,4.77726
91,5.07445
98,5.35033
105,5.60713
112,5.84682
119,6.0711
126,6.28146
133,6.47923
140,6.66555
147,6.84146
154,7.00786
161,7.16556
168,7.31527
175,7.45762
182,7.59318
189,7.72245
196,7.84589
203,7.9639
210,8.07684
217,8.18504
224,8.2888
231,8.38837
238,8.484
245,8.5759
252,8.66427
259,8.74928
266,8.83108
273,8.90983
280,8.98565
287,9.05865
294,9.12895
301,9.19665
308,9.26182
315,9.32455
322,9.38489
329,9.4429
336,9.49861
343,9.55204
350,9.60323
357,9.65217
364,9.6989
371,9.7434
378,9.7857
385,9.82578
392,9.86367
399,9.89938
406,9.93292
413,9.96435
420,9.9937
427,10.021
434,10.0464
441,10.07
448,10.0918
455,10.112
462,10.1306
469,10.1479
476,10.164
483,10.1789
490,10.1929
497,10.206
504,10.2183
511,10.23
518,10.2411
525,10.2517
532,10.2619
539,10.2718
546,10.2815
553,10.2909
560,10.3002
567,10.3093
574,10.3184
581,10.3274
588,10.3364
595,10.3454
602,10.3544
609,10.3634
616,10.3725
623,10.3816
630,10.3908
637,10.4002
644,10.4096
651,10.4191
658,10.4288
665,10.4386
672,10.4486
679,10.4588
686,10.4691
693,10.4796
700,10.4903
707,10.5011
714,10.5123
721,10.5236
728,10.5352
735,10.547
742,10.559
749,10.5714
756,10.584
763,10.5968
770,10.61
777,10.6235
784,10.6372
791,10.6512
798,10.6655
805,10.68
812,10.6949
819,10.7099
826,10.7251
833,10.7405
840,10.756
847,10.7715
854,10.7871
861,10.8026
868,10.818
875,10.8332
882,10.8481
889,10.8628
896,10.8772
903,10.8913
910,10.905
917,10.9184
924,10.9315
931,10.9443
938,10.9568
945,10.969
952,10.9809
959,10.9926
966,11.0041
973,11.0154
980,11.0264
987,11.0372
994,11.0479
1000,11.0569
1010,11.0715
1020,11.0858
1020,11.0858
1030,11.0998
1040,11.1134
1040,11.1134
1050,11.1267
1060,11.1397
1060,11.1397
1070,11.1524
1080,11.1648
1090,11.1769
1090,11.1769
1100,11.1887
1110,11.2003
1110,11.2003
1120,11.2115
1130,11.2226
1130,11.2226
1140,11.2333
1150,11.2438
1160,11.2541
1160,11.2541
1170,11.2642
1180,11.274
1180,11.274
1190,11.2836
1200,11.2929
1200,11.2929
1210,11.3021
1220,11.311
1230,11.3198
1230,11.3198
1240,11.3283
1250,11.3366
1250,11.3366
1260,11.3448
1270,11.3528
1270,11.3528
1280,11.3605
1290,11.3681
1300,11.3756
1300,11.3756
1310,11.3828
1320,11.3899
1320,11.3899
1330,11.3969
1340,11.4037
1340,11.4037
1350,11.4103
1360,11.4168
1370,11.4231
1370,11.4231
1380,11.4293
1390,11.4353
1390,11.4353
1400,11.4412
1410,11.447
1410,11.447
1420,11.4526
1430,11.4581
1440,11.4635
1440,11.4635
1450,11.4688
1460,11.4739
1460,11.4739
1470,11.4789
1480,11.4838
1480,11.4838
1490,11.4886
1500,11.4933
1510,11.4979
1510,11.4979
1520,11.5024
1530,11.5068
1530,11.5068
1540,11.511
1550,11.5152
1550,11.5152
1560,11.5193
1570,11.5233
1580,11.5272
1580,11.5272
1590,11.531
1600,11.5347
1600,11.5347
1610,11.5384
1620,11.5419
1620,11.5419
1630,11.5454
1640,11.5488
1650,11.5521
1650,11.5521
1660,11.5554
1670,11.5586
1670,11.5586
1680,11.5617
1690,11.5647
1690,11.5647
1700,11.5677
1710,11.5705
1720,11.5734
1720,11.5734
1730,11.5761
1740,11.5788
1740,11.5788
1750,11.5815
1760,11.5841
1760,11.5841
1770,11.5866
1780,11.589
1790,11.5915
1790,11.5915
1800,11.5938
1800,11.5938

File: E_Glass_linear_dsc_M_0_cone_BT.csv
# Time [s], Temperature [C]
0.000000000000000000e+00,25
7,25
14,25.0054
21,25.1138
28,25.6168
35,26.8096
42,28.8408
49,31.7261
56,35.404
63,39.7783
70,44.7435
77,50.197
84,56.046
91,62.2081
98,68.6124
105,75.1986
112,81.9151
119,88.7193
126,95.5752
133,102.453
140,109.329
147,116.183
154,123
161,129.766
168,136.47
175,143.105
182,149.664
189,156.14
196,162.53
203,168.829
210,175.035
217,181.146
224,187.16
231,193.075
238,198.889
245,204.601
252,210.21
259,215.715
266,221.115
273,226.408
280,231.594
287,236.67
294,241.637
301,246.492
308,251.234
315,255.862
322,260.373
329,264.765
336,269.033
343,273.175
350,277.186
357,281.062
364,284.798
371,288.391
378,291.836
385,295.129
392,298.266
399,301.244
406,304.062
413,306.719
420,309.215
427,311.554
434,313.738
441,315.774
448,317.667
455,319.426
462,321.061
469,322.58
476,323.995
483,325.315
490,326.551
497,327.714
504,328.811
511,329.853
518,330.847
525,331.8
532,332.72
539,333.613
546,334.484
553,335.336
560,336.176
567,337.006
574,337.829
581,338.649
588,339.468
595,340.287
602,341.11
609,341.937
616,342.771
623,343.612
630,344.462
637,345.323
644,346.195
651,347.08
658,347.979
665,348.893
672,349.822
679,350.769
686,351.733
693,352.717
700,353.721
707,354.746
714,355.794
721,356.865
728,357.96
735,359.082
742,360.23
749,361.405
756,362.61
763,363.844
770,365.108
777,366.402
784,367.728
791,369.084
798,370.471
805,371.888
812,373.332
819,374.802
826,376.296
833,377.809
840,379.338
847,380.877
854,382.421
861,383.964
868,385.499
875,387.021
882,388.525
889,390.005
896,391.459
903,392.883
910,394.277
917,395.64
924,396.973
931,398.278
938,399.556
945,400.809
952,402.038
959,403.245
966,404.431
973,405.596
980,406.742
987,407.869
994,408.979
1000,409.915
1010,411.449
1020,412.949
1020,412.949
1030,414.416
1040,415.852
1040,415.852
1050,417.257
1060,418.633
1060,418.633
1070,419.979
1080,421.297
1090,422.587
1090,422.587
1100,423.849
1110,425.085
1110,425.085
1120,426.295
1130,427.48
1130,427.48
1140,428.639
1150,429.774
1160,430.885
1160,430.885
1170,431.973
1180,433.037
1180,433.037
1190,434.079
1200,435.098
1200,435.098
1210,436.096
1220,437.073
1230,438.028
1230,438.028
1240,438.964
1250,439.879
1250,439.879
1260,440.775
1270,441.651
1270,441.651
1280,442.509
1290,443.348
1300,444.17
1300,444.17
1310,444.973
1320,445.759
1320,445.759
1330,446.528
1340,447.281
1340,447.281
1350,448.017
1360,448.738
1370,449.442
1370,449.442
1380,450.132
1390,450.806
1390,450.806
1400,451.466
1410,452.111
1410,452.111
1420,452.743
1430,453.36
1440,453.964
1440,453.964
1450,454.555
1460,455.133
1460,455.133
1470,455.699
1480,456.252
1480,456.252
1490,456.792
1500,457.321
1510,457.839
1510,457.839
1520,458.345
1530,458.84
1530,458.84
1540,459.324
1550,459.797
1550,459.797
1560,460.26
1570,460.713
1580,461.155
1580,461.155
1590,461.588
1600,462.012
1600,462.012
1610,462.426
1620,462.831
1620,462.831
1630,463.226
1640,463.614
1650,463.992
1650,463.992
1660,464.362
1670,464.724
1670,464.724
1680,465.078
1690,465.425
1690,465.425
1700,465.763
1710,466.094
1720,466.418
1720,466.418
1730,466.734
1740,467.043
1740,467.043
1750,467.346
1760,467.641
1760,467.641
1770,467.931
1780,468.213
1790,468.49
1790,468.49
1800,468.76
1800,468.76

File: E_Glass_linear_dsc_M_0_cone_FT.csv
# Time [s], Temperature [C]
0.000000000000000000e+00,25
7,86.8196
14,118.381
21,140.419
28,157.734
35,172.097
42,184.407
49,195.184
56,204.774
63,213.423
70,221.316
77,228.595
84,235.38
91,241.745
98,247.744
105,253.403
112,258.751
119,263.814
126,268.63
133,273.23
140,277.65
147,281.909
154,286.027
161,290.021
168,293.901
175,297.673
182,301.349
189,304.927
196,308.413
203,311.815
210,315.126
217,318.346
224,321.488
231,324.536
238,327.493
245,330.377
252,333.16
259,335.848
266,338.472
273,340.989
280,343.411
287,345.781
294,348.043
301,350.218
308,352.356
315,354.391
322,356.351
329,358.287
336,360.134
343,361.918
350,363.69
357,365.387
364,367.031
371,368.669
378,370.244
385,371.776
392,373.299
399,374.768
406,376.199
413,377.613
420,378.981
427,380.31
434,381.617
441,382.88
448,384.106
455,385.302
462,386.459
469,387.581
476,388.671
483,389.728
490,390.755
497,391.752
504,392.721
511,393.664
518,394.582
525,395.477
532,396.351
539,397.203
546,398.036
553,398.85
560,399.647
567,400.427
574,401.191
581,401.941
588,402.677
595,403.399
602,404.11
609,404.809
616,405.497
623,406.175
630,406.844
637,407.503
644,408.154
651,408.797
658,409.434
665,410.064
672,410.687
679,411.306
686,411.919
693,412.527
700,413.132
707,413.733
714,414.331
721,414.927
728,415.52
735,416.112
742,416.702
749,417.292
756,417.882
763,418.472
770,419.062
777,419.653
784,420.246
791,420.84
798,421.437
805,422.036
812,422.638
819,423.243
826,423.852
833,424.464
840,425.08
847,425.7
854,426.324
861,426.952
868,427.583
875,428.217
882,428.854
889,429.494
896,430.135
903,430.778
910,431.421
917,432.063
924,432.705
931,433.344
938,433.98
945,434.613
952,435.241
959,435.865
966,436.483
973,437.095
980,437.7
987,438.299
994,438.892
1000,439.394
1010,440.219
1020,441.028
1020,441.028
1030,441.823
1040,442.603
1040,442.603
1050,443.367
1060,444.117
1060,444.117
1070,444.851
1080,445.571
1090,446.276
1090,446.276
1100,446.967
1110,447.643
1110,447.643
1120,448.306
1130,448.954
1130,448.954
1140,449.589
1150,450.212
1160,450.821
1160,450.821
1170,451.417
1180,452.001
1180,452.001
1190,452.572
1200,453.131
1200,453.131
1210,453.679
1220,454.215
1230,454.739
1230,454.739
1240,455.253
1250,455.755
1250,455.755
1260,456.247
1270,456.728
1270,456.728
1280,457.199
1290,457.66
1300,458.111
1300,458.111
1310,458.552
1320,458.984
1320,458.984
1330,459.406
1340,459.82
1340,459.82
1350,460.224
1360,460.62
1370,461.007
1370,461.007
1380,461.386
1390,461.757
1390,461.757
1400,462.119
1410,462.474
1410,462.474
1420,462.821
1430,463.16
1440,463.492
1440,463.492
1450,463.817
1460,464.135
1460,464.135
1470,464.446
1480,464.75
1480,464.75
1490,465.047
1500,465.338
1510,465.622
1510,465.622
1520,465.901
1530,466.172
1530,466.172
1540,466.439
1550,466.699
1550,466.699
1560,466.953
1570,467.203
1580,467.446
1580,467.446
1590,467.684
1600,467.917
1600,467.917
1610,468.144
1620,468.368
1620,468.368
1630,468.585
1640,468.798
1650,469.006
1650,469.006
1660,469.21
1670,469.409
1670,469.409
1680,469.604
1690,469.794
1690,469.794
1700,469.981
1710,470.162
1720,470.341
1720,470.341
1730,470.514
1740,470.685
1740,470.685
1750,470.851
1760,471.014
1760,471.014
1770,471.173
1780,471.328
1790,471.481
1790,471.481
1800,471.629
1800,471.629

File: E_Glass_linear_dsc_M_0_cone_Mass.csv
# Time [s], Mass [Kg]
0.000000000000000000e+00,1
7,1
14,1
21,1
28,1
35,1
42,1
49,1
56,1
63,1
70,1
77,1
84,0.999999
91,0.999999
98,0.999998
105,0.999997
112,0.999995
119,0.999991
126,0.999987
133,0.99998
140,0.999971
147,0.999958
154,0.99994
161,0.999916
168,0.999884
175,0.999843
182,0.999789
189,0.999719
196,0.999631
203,0.999518
210,0.999377
217,0.999201
224,0.998984
231,0.998718
238,0.998395
245,0.998005
252,0.997539
259,0.996986
266,0.996334
273,0.995572
280,0.994689
287,0.993673
294,0.992513
301,0.991199
308,0.989721
315,0.988071
322,0.986242
329,0.984226
336,0.982021
343,0.979622
350,0.977028
357,0.974239
364,0.971257
371,0.968085
378,0.964726
385,0.961188
392,0.957476
399,0.953599
406,0.949565
413,0.945387
420,0.941073
427,0.936637
434,0.93209
441,0.927445
448,0.922716
455,0.917914
462,0.913053
469,0.908146
476,0.903205
483,0.898242
490,0.893267
497,0.888292
504,0.883327
511,0.87838
518,0.87346
525,0.868574
532,0.863729
539,0.858931
546,0.854186
553,0.849497
560,0.84487
567,0.840308
574,0.835814
581,0.831391
588,0.827041
595,0.822767
602,0.818571
609,0.814455
616,0.810421
623,0.80647
630,0.802605
637,0.798826
644,0.795136
651,0.791537
658,0.788029
665,0.784616
672,0.781298
679,0.778079
686,0.774958
693,0.77194
700,0.769026
707,0.766218
714,0.763518
721,0.76093
728,0.758454
735,0.756094
742,0.753852
749,0.751729
756,0.749729
763,0.747853
770,0.746103
777,0.74448
784,0.742985
791,0.741618
798,0.740379
805,0.739267
812,0.73828
819,0.737415
826,0.736667
833,0.73603
840,0.735499
847,0.735063
854,0.734716
861,0.734445
868,0.73424
875,0.73409
882,0.733985
889,0.733914
896,0.733868
903,0.73384
910,0.733824
917,0.733816
924,0.733812
931,0.73381
938,0.733809
945,0.733809
952,0.733809
959,0.733809
966,0.733809
973,0.733809
980,0.733809
987,0.733809
994,0.733809
1000,0.733809
1010,0.733809
1020,0.733809
1020,0.733809
1030,0.733809
1040,0.733809
1040,0.733809
1050,0.733809
1060,0.733809
1060,0.733809
1070,0.733809
1080,0.733809
1090,0.733809
1090,0.733809
1100,0.733809
1110,0.733809
1110,0.733809
1120,0.733809
1130,0.733809
1130,0.733809
1140,0.733809
1150,0.733809
1160,0.733809
1160,0.733809
1170,0.733809
1180,0.733809
1180,0.733809
1190,0.733809
1200,0.733809
1200,0.733809
1210,0.733809
1220,0.733809
1230,0.733809
1230,0.733809
1240,0.733809
1250,0.733809
1250,0.733809
1260,0.733809
1270,0.733809
1270,0.733809
1280,0.733809
1290,0.733809
1300,0.733809
1300,0.733809
1310,0.733809
1320,0.733809
1320,0.733809
1330,0.733809
1340,0.733809
1340,0.733809
1350,0.733809
1360,0.733809
1370,0.733809
1370,0.733809
1380,0.733809
1390,0.733809
1390,0.733809
1400,0.733809
1410,0.733809
1410,0.733809
1420,0.733809
1430,0.733809
1440,0.733809
1440,0.733809
1450,0.733809
1460,0.733809
1460,0.733809
1470,0.733809
1480,0.733809
1480,0.733809
1490,0.733809
1500,0.733809
1510,0.733809
1510,0.733809
1520,0.733809
1530,0.733809
1530,0.733809
1540,0.733809
1550,0.733809
1550,0.733809
1560,0.733809
1570,0.733809
1580,0.733809
1580,0.733809
1590,0.733809
1600,0.733809
1600,0.733809
1610,0.733809
1620,0.733809
1620,0.733809
1630,0.733809
1640,0.733809
1650,0.733809
1650,0.733809
1660,0.733809
1670,0.733809
1670,0.733809
1680,0.733809
1690,0.733809
1690,0.733809
1700,0.733809
1710,0.733809
1720,0.733809
1720,0.733809
1730,0.733809
1740,0.733809
1740,0.733809
1750,0.733809
1760,0.733809
1760,0.733809
1770,0.733809
1780,0.733809
1790,0.733809
1790,0.733809
1800,0.733809
1800,0.733809

File: E_Glass_linear_dsc_M_progressMonitor.csv
Loop,Time,r0-A,p0-C0,p1-C0,p0-Cpa,p1-Cpa,p0-Cpb,p1-Cpb,r0-E,r0-Hp,p0-K,p1-K,Value,r0-Xi,p0-eps,p1-eps,p0-ka,p1-ka,p0-kb,p1-kb,r0-n,r0-nO2,p0-rho,p1-rho,
-1,0,4.47e+12,1.0,0.0,1168.94,1650.34,0.0468958,0.794814,1.48e+05,227181,11159.7,100000000.0,8.10118e-05,0.733809,0.50643,0.94,0.182964,0.113924,8.27233e-05,0.00092585,2.35725,0.0,1683.0,1235.0,
0,1075.75,4.47e+12,1.0,0.0,1168.94,1650.34,0.0468958,0.794814,1.48e+05,227181,11159.7,100000000.0,8.10118e-05,0.733809,0.50643,0.94,0.182964,0.113924,8.27233e-05,0.00092585,2.35725,0.0,1683.0,1235.0,
1,2223.52,2.47e+12,1.0,0.0,1065.41,657.791,0.0462822,0.231234,1.68e+05,203499,27915.4,100000000.0,3.826e-05,0.733809,0.710709,0.94,0.494966,0.107695,8.68266e-05,0.000454974,1.36644,0.0,1683.0,1235.0,
2,3442.85,3.53e+12,1.0,0.0,1102.26,1406.53,0.0466916,0.454124,1.58e+05,202379,24086.3,100000000.0,2.05794e-05,0.733809,0.591637,0.94,0.31636,0.124874,8.64294e-05,0.000593827,1.77418,0.0,1683.0,1235.0,
3,4710.13,3.49e+12,1.0,0.0,1107.87,1211.08,0.0467437,0.481775,1.58e+05,216857,22969,100000000.0,1.36087e-05,0.733809,0.597889,0.94,0.269465,0.121357,9.28661e-05,0.000652671,1.74352,0.0,1683.0,1235.0,
4,5964.13,3.43e+12,1.0,0.0,1110.11,1086.35,0.0467684,0.468643,1.57e+05,217991,22656.8,100000000.0,1.09895e-05,0.733809,0.59231,0.94,0.264299,0.117808,9.50047e-05,0.00067115,1.8231,0.0,1683.0,1235.0,
5,7210.08,3.52e+12,1.0,0.0,1110.09,1265.81,0.0465886,0.459745,1.58e+05,206085,22584.2,100000000.0,9.83162e-06,0.733809,0.603699,0.94,0.259811,0.132576,9.32982e-05,0.000650831,1.79756,0.0,1683.0,1235.0,
6,8483.98,3.80e+12,1.0,0.0,1109.33,1351.79,0.0465582,0.452738,1.60e+05,200406,22616.9,100000000.0,9.51775e-06,0.733809,0.613906,0.94,0.261496,0.138745,9.51552e-05,0.000625077,1.73257,0.0,1683.0,1235.0,
7,9702.22,4.13e+12,1.0,0.0,1112.89,1688.55,0.0459282,0.481621,1.62e+05,191353,22273.1,100000000.0,8.44362e-06,0.733809,0.642245,0.94,0.272074,0.172666,7.23589e-05,0.000588333,1.54431,0.0,1683.0,1235.0,
8,10912.5,4.52e+12,1.0,0.0,1114.51,2030.05,0.0455364,0.483766,1.64e+05,183449,22407.7,100000000.0,7.75763e-06,0.733809,0.658767,0.94,0.275679,0.192439,6.32828e-05,0.000558252,1.41442,0.0,1683.0,1235.0,
9,12162.8,4.98e+12,1.0,0.0,1114.5,2443.15,0.0452823,0.45347,1.66e+05,170998,23052.1,100000000.0,7.15478e-06,0.733809,0.673746,0.94,0.266096,0.205345,6.50906e-05,0.000520296,1.30064,0.0,1683.0,1235.0,
10,13439.2,5.34e+12,1.0,0.0,1114.94,2813.21,0.0450939,0.44287,1.67e+05,161943,23575.4,100000000.0,6.85059e-06,0.733809,0.681818,0.94,0.263008,0.216947,6.54337e-05,0.000490623,1.21285,0.0,1683.0,1235.0,
11,14701.7,5.65e+12,1.0,0.0,1114.3,3130.49,0.0449832,0.41807,1.68e+05,152665,24282.6,100000000.0,6.76905e-06,0.733809,0.688375,0.94,0.258489,0.22258,6.92654e-05,0.000459849,1.15065,0.0,1683.0,1235.0,
12,15975.6,5.70e+12,1.0,0.0,1114.61,3196.6,0.0449371,0.418535,1.68e+05,151462,24350.3,100000000.0,6.75048e-06,0.733809,0.690035,0.94,0.258253,0.224739,6.84873e-05,0.000455478,1.13184,0.0,1683.0,1235.0,
13,17301,5.68e+12,1.0,0.0,1114.55,3169.84,0.0449503,0.419996,1.68e+05,152269,24312.9,100000000.0,6.74198e-06,0.733809,0.689464,0.94,0.25909,0.223878,6.83344e-05,0.000457203,1.13624,0.0,1683.0,1235.0,
14,18703.2,5.72e+12,1.0,0.0,1114.45,3211.15,0.0449348,0.417107,1.68e+05,151125,24421.8,100000000.0,6.73746e-06,0.733809,0.690499,0.94,0.258859,0.224501,6.86472e-05,0.000452783,1.12665,0.0,1683.0,1235.0,
15,20531,3.94e+12,1.0,0.0,1128.82,2718.91,0.0450745,0.551875,1.66e+05,173137,17758,100000000.0,6.67466e-06,0.733809,0.699919,0.94,0.233001,0.0556691,0.000158601,0.000842267,1.19488,0.0,1683.0,1235.0,
16,21814.5,4.58e+12,1.0,0.0,1126.37,2712.33,0.0453362,0.542821,1.68e+05,164400,21621.6,100000000.0,6.607e-06,0.733809,0.709835,0.94,0.246151,0.0996756,0.000126286,0.000719365,1.17913,0.0,1683.0,1235.0,
17,23095.9,4.25e+12,1.0,0.0,1127.31,2820.38,0.0452433,0.526959,1.67e+05,168814,19282.6,100000000.0,6.5416e-06,0.733809,0.708626,0.94,0.230394,0.0684446,0.00016147,0.000809195,1.16072,0.0,1683.0,1235.0,
18,24389,4.71e+12,1.0,0.0,1129.44,2821.25,0.0456545,0.53927,1.69e+05,159789,23622.2,100000000.0,6.36406e-06,0.733809,0.722941,0.94,0.239479,0.0945452,0.00014172,0.00071081,1.13111,0.0,1683.0,1235.0,
19,25612.2,4.76e+12,1.0,0.0,1129.44,2761.11,0.0459662,0.558169,1.69e+05,158499,25135.3,100000000.0,6.36373e-06,0.733809,0.720719,0.94,0.241086,0.0938851,0.000136521,0.000692022,1.14182,0.0,1683.0,1235.0,
20,26910.2,4.76e+12,1.0,0.0,1129.44,2761.11,0.0459662,0.558169,1.69e+05,158499,25135.3,100000000.0,6.36373e-06,0.733809,0.720719,0.94,0.241086,0.0938851,0.000136521,0.000692022,1.14182,0.0,1683.0,1235.0,
21,28219.6,4.76e+12,1.0,0.0,1129.44,2761.11,0.0459662,0.558169,1.69e+05,158499,25135.3,100000000.0,6.36373e-06,0.733809,0.720719,0.94,0.241086,0.0938851,0.000136521,0.000692022,1.14182,0.0,1683.0,1235.0,
22,29540.6,4.76e+12,1.0,0.0,1129.44,2761.11,0.0459662,0.558169,1.69e+05,158499,25135.3,100000000.0,6.36373e-06,0.733809,0.720719,0.94,0.241086,0.0938851,0.000136521,0.000692022,1.14182,0.0,1683.0,1235.0,
23,30899.2,4.76e+12,1.0,0.0,1129.44,2761.11,0.0459662,0.558169,1.69e+05,158499,25135.3,100000000.0,6.36373e-06,0.733809,0.720719,0.94,0.241086,0.0938851,0.000136521,0.000692022,1.14182,0.0,1683.0,1235.0,
24,32285.5,4.97e+12,1.0,0.0,1129.07,2874.11,0.0464298,0.545819,1.69e+05,154164,27398.2,100000000.0,6.33346e-06,0.733809,0.720927,0.94,0.242477,0.121547,0.00012784,0.000630179,1.12419,0.0,1683.0,1235.0,
25,33660.6,4.55e+12,1.0,0.0,1121.6,2674.91,0.0460459,0.533486,1.69e+05,153433,27807.6,100000000.0,6.29743e-06,0.733809,0.717773,0.94,0.230379,0.0927775,0.000145477,0.000645003,1.15949,0.0,1683.0,1235.0,
26,35077.5,4.55e+12,1.0,0.0,1121.6,2674.91,0.0460459,0.533486,1.69e+05,153433,27807.6,100000000.0,6.29743e-06,0.733809,0.717773,0.94,0.230379,0.0927775,0.000145477,0.000645003,1.15949,0.0,1683.0,1235.0,
27,36413.8,4.79e+12,1.0,0.0,1124.04,2734.61,0.0460667,0.541412,1.69e+05,155123,27058.6,100000000.0,6.28823e-06,0.733809,0.721713,0.94,0.237866,0.106097,0.000136276,0.00064753,1.14494,0.0,1683.0,1235.0,
28,37836.9,4.79e+12,1.0,0.0,1124.04,2734.61,0.0460667,0.541412,1.69e+05,155123,27058.6,100000000.0,6.28823e-06,0.733809,0.721713,0.94,0.237866,0.106097,0.000136276,0.00064753,1.14494,0.0,1683.0,1235.0,
29,39357.8,4.79e+12,1.0,0.0,1124.04,2734.61,0.0460667,0.541412,1.69e+05,155123,27058.6,100000000.0,6.28823e-06,0.733809,0.721713,0.94,0.237866,0.106097,0.000136276,0.00064753,1.14494,0.0,1683.0,1235.0,
30,40820.1,3.68e+12,1.0,0.0,1139.84,2806.35,0.044985,0.554951,1.67e+05,157600,18935.9,100000000.0,6.21012e-06,0.733809,0.722587,0.94,0.222925,0.0309094,0.000175052,0.000792655,1.14225,0.0,1683.0,1235.0,
31,42230.2,3.98e+12,1.0,0.0,1139.34,2788.21,0.0451152,0.570211,1.69e+05,151482,20980,100000000.0,6.11755e-06,0.733809,0.735313,0.94,0.227899,0.0414714,0.000164569,0.000735889,1.10894,0.0,1683.0,1235.0,
32,43602.3,4.18e+12,1.0,0.0,1130.26,2732.11,0.0447345,0.567671,1.70e+05,149883,20989.4,100000000.0,6.05749e-06,0.733809,0.745246,0.94,0.227339,0.0469991,0.000167165,0.000716425,1.08415,0.0,1683.0,1235.0,
33,44972.9,4.21e+12,1.0,0.0,1125.96,2742.83,0.0442382,0.569602,1.71e+05,147233,19542.6,100000000.0,5.98718e-06,0.733809,0.755824,0.94,0.224505,0.0450915,0.000173945,0.000712202,1.05902,0.0,1683.0,1235.0,
34,46357.6,4.28e+12,1.0,0.0,1104.91,2616.08,0.0432261,0.621763,1.72e+05,144513,17151.4,100000000.0,5.83948e-06,0.733809,0.765913,0.94,0.219944,0.049049,0.000174733,0.000697785,1.04716,0.0,1683.0,1235.0,
35,47723.4,4.22e+12,1.0,0.0,1086.08,2616.6,0.0419958,0.698044,1.74e+05,138425,13849.1,100000000.0,5.7316e-06,0.733809,0.781842,0.94,0.215479,0.0484075,0.000175056,0.000686326,0.997295,0.0,1683.0,1235.0,
36,49089.7,4.20e+12,1.0,0.0,1075.02,2613.63,0.0414157,0.731527,1.75e+05,132800,12648.9,100000000.0,5.63996e-06,0.733809,0.791841,0.94,0.212109,0.0575198,0.000174691,0.000650679,0.972361,0.0,1683.0,1235.0,
37,50459.6,4.20e+12,1.0,0.0,1058.68,2669.06,0.0409184,0.742934,1.76e+05,125473,13402,100000000.0,5.55182e-06,0.733809,0.802032,0.94,0.208161,0.0785663,0.000175731,0.000583908,0.925941,0.0,1683.0,1235.0,
38,51830.4,4.18e+12,1.0,0.0,1053.44,2717.26,0.0407759,0.752127,1.77e+05,121879,13528.8,100000000.0,5.53677e-06,0.733809,0.805841,0.94,0.206948,0.0899726,0.00017466,0.000551856,0.907242,0.0,1683.0,1235.0,
39,53217.8,4.20e+12,1.0,0.0,1054.28,2666.09,0.0406923,0.751671,1.77e+05,123626,12956.8,100000000.0,5.52694e-06,0.733809,0.805675,0.94,0.207248,0.0842898,0.00017534,0.000569163,0.917586,0.0,1683.0,1235.0,
40,54726.7,4.21e+12,1.0,0.0,1053.6,2657.04,0.0406802,0.748937,1.77e+05,123469,13070.9,100000000.0,5.525e-06,0.733809,0.806107,0.94,0.207136,0.0859059,0.00017538,0.000565166,0.918159,0.0,1683.0,1235.0,
41,56215.3,4.22e+12,1.0,0.0,1053.75,2642.75,0.040683,0.747246,1.77e+05,123616,13038.7,100000000.0,5.52369e-06,0.733809,0.806228,0.94,0.207234,0.0862794,0.000175344,0.000564497,0.9212,0.0,1683.0,1235.0,
42,57702.1,4.25e+12,1.0,0.0,1054.53,2607.77,0.0406838,0.743684,1.77e+05,124346,12903.5,100000000.0,5.52112e-06,0.733809,0.806454,0.94,0.207792,0.0860628,0.000174958,0.000567302,0.928652,0.0,1683.0,1235.0,
43,59143.6,4.30e+12,1.0,0.0,1054.6,2547.88,0.0406833,0.736165,1.77e+05,124974,12867.9,100000000.0,5.51896e-06,0.733809,0.807218,0.94,0.208334,0.088549,0.000174454,0.000563404,0.940014,0.0,1683.0,1235.0,
44,60501.2,4.32e+12,1.0,0.0,1054.08,2525.68,0.0406842,0.729843,1.77e+05,125219,13051,100000000.0,5.51752e-06,0.733809,0.807351,0.94,0.208263,0.0900349,0.000174793,0.000560462,0.94367,0.0,1683.0,1235.0,