Folder: optimizationPaper/results/E_Glass/1Mass_DSC_FT

Note: results/E_Glass/1Mass_DSC_FT/E_Glass_linear_dsc_M_FT_solution.txt
A	 = 3.06e+12,
C0	 = 1.0,0.0,
Cpa	 = 1074.41254557,1090.62339039,
Cpb	 = 0.0429588227209,0.178621843406,
E	 = 1.83e+05,
Hp	 = 99656.5673532,
K	 = 11935.731332,100000000.0,
Value	 = 2.43670932282e-06,
Xi	 = 0.733808674985,
eps	 = 0.936807333391,0.94,
ka	 = 0.314288132845,0.0239383231592,
kb	 = 3.38962229364e-05,0.000386103142439,
n	 = 1.01307932797,
nO2	 = 0.0,
rho	 = 1683.0,1235.0,

File: E_Glass_linear_dsc_M_FT_0_cone_Bh.csv
# Time [s], Convective Heat Transfer Coefficient [W/m2K]
0.000000000000000000e+00,0.000000000000000000e+00
7,0.0617355
14,0.445485
21,1.0703
28,1.73296
35,2.3571
42,2.9248
49,3.43641
56,3.89741
63,4.31414
70,4.69252
77,5.03768
84,5.35398
91,5.64508
98,5.91406
105,6.16351
112,6.39562
119,6.61227
126,6.81505
133,7.00535
140,7.18438
147,7.35321
154,7.51274
161,7.66381
168,7.80711
175,7.94328
182,8.07287
189,8.19637
196,8.31423
203,8.42684
210,8.53453
217,8.63762
224,8.73638
231,8.83108
238,8.92192
245,9.00912
252,9.09284
259,9.17326
266,9.25053
273,9.32477
280,9.39611
287,9.46468
294,9.53056
301,9.59384
308,9.65461
315,9.71291
322,9.76881
329,9.82234
336,9.87355
343,9.92246
350,9.96912
357,10.0135
364,10.0558
371,10.0958
378,10.1337
385,10.1695
392,10.2032
399,10.2349
406,10.2646
413,10.2924
420,10.3184
427,10.3426
434,10.3651
441,10.386
448,10.4054
455,10.4235
462,10.4402
469,10.4558
476,10.4703
483,10.4838
490,10.4965
497,10.5084
504,10.5197
511,10.5303
518,10.5405
525,10.5503
532,10.5596
539,10.5688
546,10.5776
553,10.5863
560,10.5949
567,10.6034
574,10.6118
581,10.6202
588,10.6286
595,10.637
602,10.6455
609,10.6541
616,10.6628
623,10.6716
630,10.6806
637,10.6897
644,10.699
651,10.7085
658,10.7182
665,10.7281
672,10.7383
679,10.7487
686,10.7594
693,10.7704
700,10.7817
707,10.7933
714,10.8053
721,10.8177
728,10.8304
735,10.8435
742,10.8571
749,10.8711
756,10.8855
763,10.9004
770,10.9158
777,10.9317
784,10.948
791,10.9649
798,10.9822
805,11
812,11.0181
819,11.0367
826,11.0555
833,11.0746
840,11.0938
847,11.113
854,11.1321
861,11.151
868,11.1696
875,11.1877
882,11.2054
889,11.2224
896,11.2389
903,11.2547
910,11.27
917,11.2846
924,11.2987
931,11.3122
938,11.3252
945,11.3378
952,11.3499
959,11.3616
966,11.3728
973,11.3837
980,11.3942
987,11.4044
994,11.4142
1000,11.4223
1010,11.4354
1020,11.4478
1020,11.4478
1030,11.4596
1040,11.4709
1040,11.4709
1050,11.4816
1060,11.4918
1060,11.4918
1070,11.5016
1080,11.5109
1090,11.5197
1090,11.5197
1100,11.5281
1110,11.5361
1110,11.5361
1120,11.5438
1130,11.5511
1130,11.5511
1140,11.558
1150,11.5646
1160,11.5709
1160,11.5709
1170,11.5769
1180,11.5826
1180,11.5826
1190,11.588
1200,11.5932
1200,11.5932
1210,11.5982
1220,11.6029
1230,11.6074
1230,11.6074
1240,11.6116
1250,11.6157
1250,11.6157
1260,11.6196
1270,11.6233
1270,11.6233
1280,11.6268
1290,11.6301
1300,11.6333
1300,11.6333
1310,11.6364
1320,11.6393
1320,11.6393
1330,11.642
1340,11.6447
1340,11.6447
1350,11.6472
1360,11.6496
1370,11.6518
1370,11.6518
1380,11.654
1390,11.6561
1390,11.6561
1400,11.6581
1410,11.6599
1410,11.6599
1420,11.6617
1430,11.6634
1440,11.665
1440,11.665
1450,11.6666
1460,11.6681
1460,11.6681
1470,11.6695
1480,11.6708
1480,11.6708
1490,11.6721
1500,11.6733
1510,11.6744
1510,11.6744
1520,11.6755
1530,11.6766
1530,11.6766
1540,11.6776
1550,11.6785
1550,11.6785
1560,11.6795
1570,11.6803
1580,11.6811
1580,11.6811
1590,11.6819
1600,11.6827
1600,11.6827
1610,11.6834
1620,11.6841
1620,11.6841
1630,11.6847
1640,11.6853
1650,11.6859
1650,11.6859
1660,11.6865
1670,11.687
1670,11.687
1680,11.6875
1690,11.688
1690,11.688
1700,11.6885
1710,11.6889
1720,11.6893
1720,11.6893
1730,11.6897
1740,11.6901
1740,11.6901
1750,11.6905
1760,11.6908
1760,11.6908
1770,11.6911
1780,11.6915
1790,11.6918
1790,11.6918
1800,11.692
1800,11.692

File: E_Glass_linear_dsc_M_FT_0_cone_BT.csv
# Time [s], Temperature [C]
0.000000000000000000e+00,25
7,25.0001
14,25.0252
21,25.3491
28,26.482
35,28.7291
42,32.1245
49,36.5553
56,41.8576
63,47.864
70,54.4231
77,61.405
84,68.7019
91,76.2248
98,83.9016
105,91.6736
112,99.4934
119,107.323
126,115.131
133,122.894
140,130.594
147,138.214
154,145.744
161,153.175
168,160.5
175,167.715
182,174.814
189,181.796
196,188.658
203,195.397
210,202.014
217,208.506
224,214.873
231,221.115
238,227.229
245,233.217
252,239.076
259,244.807
266,250.408
273,255.878
280,261.219
287,266.427
294,271.504
301,276.447
308,281.255
315,285.926
322,290.457
329,294.845
336,299.087
343,303.181
350,307.124
357,310.912
364,314.544
371,318.016
378,321.329
385,324.48
392,327.469
399,330.296
406,332.964
413,335.474
420,337.829
427,340.035
434,342.096
441,344.02
448,345.813
455,347.483
462,349.04
469,350.492
476,351.848
483,353.117
490,354.308
497,355.431
504,356.493
511,357.503
518,358.467
525,359.393
532,360.288
539,361.156
546,362.004
553,362.836
560,363.657
567,364.47
574,365.279
581,366.087
588,366.897
595,367.712
602,368.534
609,369.366
616,370.209
623,371.066
630,371.938
637,372.828
644,373.736
651,374.664
658,375.616
665,376.591
672,377.591
679,378.62
686,379.677
693,380.766
700,381.887
707,383.044
714,384.238
721,385.471
728,386.744
735,388.062
742,389.424
749,390.834
756,392.294
763,393.805
770,395.369
777,396.987
784,398.659
791,400.387
798,402.168
805,404.002
812,405.885
819,407.812
826,409.776
833,411.771
840,413.786
847,415.809
854,417.83
861,419.834
868,421.81
875,423.746
882,425.634
889,427.467
896,429.24
903,430.952
910,432.602
917,434.192
924,435.725
931,437.203
938,438.629
945,440.007
952,441.337
959,442.624
966,443.867
973,445.071
980,446.235
987,447.361
994,448.452
1000,449.358
1010,450.814
1020,452.203
1020,452.203
1030,453.529
1040,454.794
1040,454.794
1050,456.002
1060,457.154
1060,457.154
1070,458.254
1080,459.303
1090,460.304
1090,460.304
1100,461.259
1110,462.17
1110,462.17
1120,463.039
1130,463.868
1130,463.868
1140,464.659
1150,465.414
1160,466.133
1160,466.133
1170,466.819
1180,467.473
1180,467.473
1190,468.097
1200,468.692
1200,468.692
1210,469.26
1220,469.801
1230,470.316
1230,470.316
1240,470.808
1250,471.277
1250,471.277
1260,471.724
1270,472.15
1270,472.15
1280,472.557
1290,472.944
1300,473.313
1300,473.313
1310,473.665
1320,474.001
1320,474.001
1330,474.321
1340,474.625
1340,474.625
1350,474.916
1360,475.193
1370,475.457
1370,475.457
1380,475.709
1390,475.948
1390,475.948
1400,476.177
1410,476.395
1410,476.395
1420,476.603
1430,476.8
1440,476.989
1440,476.989
1450,477.169
1460,477.34
1460,477.34
1470,477.503
1480,477.659
1480,477.659
1490,477.807
1500,477.948
1510,478.083
1510,478.083
1520,478.211
1530,478.334
1530,478.334
1540,478.45
1550,478.561
1550,478.561
1560,478.667
1570,478.768
1580,478.864
1580,478.864
1590,478.956
1600,479.043
1600,479.043
1610,479.126
1620,479.205
1620,479.205
1630,479.281
1640,479.353
1650,479.421
1650,479.421
1660,479.487
1670,479.549
1670,479.549
1680,479.608
1690,479.665
1690,479.665
1700,479.718
1710,479.77
1720,479.819
1720,479.819
1730,479.865
1740,479.91
1740,479.91
1750,479.952
1760,479.992
1760,479.992
1770,480.031
1780,480.067
1790,480.102
1790,480.102
1800,480.135
1800,480.135

File: E_Glass_linear_dsc_M_FT_0_cone_Mass.csv
# Time [s], Mass [Kg]
0.000000000000000000e+00,1
7,1
14,1
21,1
28,1
35,1
42,1
49,1
56,1
63,1
70,1
77,1
84,1
91,0.999999
98,0.999999
105,0.999998
112,0.999996
119,0.999994
126,0.999991
133,0.999985
140,0.999978
147,0.999967
154,0.999953
161,0.999932
168,0.999904
175,0.999867
182,0.999818
189,0.999754
196,0.999671
203,0.999564
210,0.999428
217,0.999258
224,0.999045
231,0.998781
238,0.998459
245,0.998068
252,0.997599
259,0.997039
266,0.996377
273,0.995603
280,0.994705
287,0.993671
294,0.992491
301,0.991156
308,0.989657
315,0.987987
322,0.986139
329,0.984109
336,0.981894
343,0.979491
350,0.976898
357,0.974118
364,0.97115
371,0.967997
378,0.964663
385,0.961152
392,0.95747
399,0.953623
406,0.94962
413,0.945469
420,0.941179
427,0.936762
434,0.932229
441,0.927592
448,0.922864
455,0.918059
462,0.913189
469,0.908268
476,0.903309
483,0.898325
490,0.893328
497,0.888328
504,0.883338
511,0.878366
518,0.873422
525,0.868514
532,0.863649
539,0.858833
546,0.854072
553,0.849371
560,0.844735
567,0.840167
574,0.835671
581,0.831248
588,0.826903
595,0.822636
602,0.81845
609,0.814346
616,0.810326
623,0.806391
630,0.802543
637,0.798783
644,0.795111
651,0.79153
658,0.788041
665,0.784644
672,0.781342
679,0.778136
686,0.775027
693,0.772018
700,0.769109
707,0.766304
714,0.763604
721,0.761011
728,0.758528
735,0.756157
742,0.753901
749,0.751761
756,0.749742
763,0.747845
770,0.746073
777,0.744428
784,0.742911
791,0.741525
798,0.740269
805,0.739144
812,0.738148
819,0.737279
826,0.736532
833,0.735903
840,0.735382
847,0.734962
854,0.734632
861,0.734379
868,0.734192
875,0.734058
882,0.733965
889,0.733903
896,0.733864
903,0.733839
910,0.733825
917,0.733817
924,0.733813
931,0.733811
938,0.73381
945,0.733809
952,0.733809
959,0.733809
966,0.733809
973,0.733809
980,0.733809
987,0.733809
994,0.733809
1000,0.733809
1010,0.733809
1020,0.733809
1020,0.733809
1030,0.733809
1040,0.733809
1040,0.733809
1050,0.733809
1060,0.733809
1060,0.733809
1070,0.733809
1080,0.733809
1090,0.733809
1090,0.733809
1100,0.733809
1110,0.733809
1110,0.733809
1120,0.733809
1130,0.733809
1130,0.733809
1140,0.733809
1150,0.733809
1160,0.733809
1160,0.733809
1170,0.733809
1180,0.733809
1180,0.733809
1190,0.733809
1200,0.733809
1200,0.733809
1210,0.733809
1220,0.733809
1230,0.733809
1230,0.733809
1240,0.733809
1250,0.733809
1250,0.733809
1260,0.733809
1270,0.733809
1270,0.733809
1280,0.733809
1290,0.733809
1300,0.733809
1300,0.733809
1310,0.733809
1320,0.733809
1320,0.733809
1330,0.733809
1340,0.733809
1340,0.733809
1350,0.733809
1360,0.733809
1370,0.733809
1370,0.733809
1380,0.733809
1390,0.733809
1390,0.733809
1400,0.733809
1410,0.733809
1410,0.733809
1420,0.733809
1430,0.733809
1440,0.733809
1440,0.733809
1450,0.733809
1460,0.733809
1460,0.733809
1470,0.733809
1480,0.733809
1480,0.733809
1490,0.733809
1500,0.733809
1510,0.733809
1510,0.733809
1520,0.733809
1530,0.733809
1530,0.733809
1540,0.733809
1550,0.733809
1550,0.733809
1560,0.733809
1570,0.733809
1580,0.733809
1580,0.733809
1590,0.733809
1600,0.733809
1600,0.733809
1610,0.733809
1620,0.733809
1620,0.733809
1630,0.733809
1640,0.733809
1650,0.733809
1650,0.733809
1660,0.733809
1670,0.733809
1670,0.733809
1680,0.733809
1690,0.733809
1690,0.733809
1700,0.733809
1710,0.733809
1720,0.733809
1720,0.733809
1730,0.733809
1740,0.733809
1740,0.733809
1750,0.733809
1760,0.733809
1760,0.733809
1770,0.733809
1780,0.733809
1790,0.733809
1790,0.733809
1800,0.733809
1800,0.733809

File: E_Glass_linear_dsc_M_FT_0_cone_Temp0.csv
# Time [s], Temperature [C]
0.000000000000000000e+00,25
7,88.8656
14,122.359
21,145.948
28,164.569
35,180.062
42,193.355
49,205.005
56,215.381
63,224.745
70,233.299
77,241.203
84,248.583
91,255.536
98,262.13
105,268.399
112,274.361
119,280.034
126,285.442
133,290.613
140,295.578
147,300.36
154,304.979
161,309.451
168,313.786
175,317.993
182,322.077
189,326.043
196,329.894
203,333.634
210,337.261
217,340.778
224,344.186
231,347.483
238,350.669
245,353.746
252,356.711
259,359.566
266,362.311
273,364.947
280,367.476
287,369.902
294,372.225
301,374.451
308,376.587
315,378.633
322,380.6
329,382.493
336,384.317
343,386.079
350,387.787
357,389.444
364,391.055
371,392.628
378,394.165
385,395.668
392,397.143
399,398.587
406,400.005
413,401.398
420,402.762
427,404.101
434,405.414
441,406.695
448,407.948
455,409.172
462,410.366
469,411.527
476,412.658
483,413.756
490,414.824
497,415.859
504,416.865
511,417.842
518,418.79
525,419.71
532,420.605
539,421.476
546,422.323
553,423.147
560,423.95
567,424.734
574,425.5
581,426.247
588,426.978
595,427.694
602,428.396
609,429.084
616,429.762
623,430.425
630,431.08
637,431.724
644,432.358
651,432.984
658,433.603
665,434.216
672,434.821
679,435.423
686,436.018
693,436.61
700,437.198
707,437.783
714,438.365
721,438.948
728,439.527
735,440.108
742,440.689
749,441.27
756,441.853
763,442.439
770,443.026
777,443.618
784,444.214
791,444.814
798,445.419
805,446.031
812,446.647
819,447.27
826,447.898
833,448.534
840,449.175
847,449.822
854,450.474
861,451.129
868,451.787
875,452.446
882,453.105
889,453.76
896,454.411
903,455.055
910,455.691
917,456.316
924,456.931
931,457.531
938,458.118
945,458.69
952,459.248
959,459.79
966,460.317
973,460.828
980,461.323
987,461.804
994,462.27
1000,462.659
1010,463.284
1020,463.881
1020,463.881
1030,464.451
1040,464.996
1040,464.996
1050,465.516
1060,466.013
1060,466.013
1070,466.488
1080,466.94
1090,467.373
1090,467.373
1100,467.786
1110,468.18
1110,468.18
1120,468.556
1130,468.915
1130,468.915
1140,469.258
1150,469.585
1160,469.897
1160,469.897
1170,470.195
1180,470.477
1180,470.477
1190,470.749
1200,471.007
1200,471.007
1210,471.253
1220,471.488
1230,471.712
1230,471.712
1240,471.926
1250,472.129
1250,472.129
1260,472.324
1270,472.509
1270,472.509
1280,472.686
1290,472.854
1300,473.016
1300,473.016
1310,473.168
1320,473.314
1320,473.314
1330,473.454
1340,473.586
1340,473.586
1350,473.714
1360,473.834
1370,473.948
1370,473.948
1380,474.058
1390,474.163
1390,474.163
1400,474.263
1410,474.357
1410,474.357
1420,474.447
1430,474.535
1440,474.617
1440,474.617
1450,474.695
1460,474.769
1460,474.769
1470,474.84
1480,474.909
1480,474.909
1490,474.974
1500,475.035
1510,475.093
1510,475.093
1520,475.149
1530,475.202
1530,475.202
1540,475.253
1550,475.303
1550,475.303
1560,475.349
1570,475.393
1580,475.434
1580,475.434
1590,475.474
1600,475.512
1600,475.512
1610,475.548
1620,475.582
1620,475.582
1630,475.615
1640,475.646
1650,475.676
1650,475.676
1660,475.706
1670,475.734
1670,475.734
1680,475.759
1690,475.784
1690,475.784
1700,475.807
1710,475.83
1720,475.851
1720,475.851
1730,475.871
1740,475.89
1740,475.89
1750,475.909
1760,475.926
1760,475.926
1770,475.943
1780,475.959
1790,475.974
1790,475.974
1800,475.988
1800,475.988

File: E_Glass_linear_dsc_M_FT_progressMonitor.csv
Loop,Time,r0-A,p0-C0,p1-C0,p0-Cpa,p1-Cpa,p0-Cpb,p1-Cpb,r0-E,r0-Hp,p0-K,p1-K,Value,r0-Xi,p0-eps,p1-eps,p0-ka,p1-ka,p0-kb,p1-kb,r0-n,r0-nO2,p0-rho,p1-rho,
-1,0,2.77e+12,1.0,0.0,1013.5,393.451,0.0452982,0.39117,1.52e+05,280677,15053,100000000.0,0.00126936,0.733809,0.966798,0.94,0.325168,0.0613958,0.000145536,9.56077e-05,2.68223,0.0,1683.0,1235.0,
4,811.3256,4.19e+12,1.0,0.0,1018.51,1493.23,0.0443613,0.574375,1.84e+05,88566.4,14817.7,100000000.0,0.000188462,0.733809,0.889413,0.94,0.274664,0.120651,6.95524e-05,0.000345664,1.26083,0.0,1683.0,1235.0,
9,1699.63,4.65e+12,1.0,0.0,1022.1,993.467,0.0438575,0.4529,1.85e+05,98564.1,16242.4,100000000.0,4.25451e-05,0.733809,0.909819,0.94,0.29169,0.12031,7.61588e-05,0.000301395,1.26904,0.0,1683.0,1235.0,
14,2585.06,4.58e+12,1.0,0.0,1030.34,905.674,0.0437418,0.42634,1.85e+05,103882,14926.2,100000000.0,2.30154e-05,0.733809,0.913621,0.94,0.290127,0.122504,7.83632e-05,0.000260204,1.08121,0.0,1683.0,1235.0,
19,3503.78,4.49e+12,1.0,0.0,1029.92,894.177,0.0437685,0.419522,1.85e+05,105425,13831.5,100000000.0,1.80217e-05,0.733809,0.913625,0.94,0.28875,0.121215,7.95444e-05,0.000250396,0.951799,0.0,1683.0,1235.0,
24,4478.69,4.88e+12,1.0,0.0,1033.75,901.646,0.0436248,0.403034,1.86e+05,105050,12181.3,100000000.0,1.68323e-05,0.733809,0.915536,0.94,0.287476,0.121707,8.36755e-05,0.000247458,0.970865,0.0,1683.0,1235.0,
29,5416.91,5.30e+12,1.0,0.0,1033.53,928.287,0.0435731,0.382476,1.86e+05,105141,9373.51,100000000.0,1.5087e-05,0.733809,0.916731,0.94,0.286328,0.122113,8.74056e-05,0.000250215,0.967282,0.0,1683.0,1235.0,
34,6388.36,5.30e+12,1.0,0.0,1033.48,933.257,0.0435605,0.379942,1.86e+05,105111,9218.91,100000000.0,1.47333e-05,0.733809,0.916456,0.94,0.286169,0.121567,8.74516e-05,0.000252611,0.984292,0.0,1683.0,1235.0,
39,7288.87,3.27e+12,1.0,0.0,1050.12,910.512,0.0419525,0.434908,1.83e+05,102512,9646.26,100000000.0,9.41419e-06,0.733809,0.924294,0.94,0.301511,0.146538,5.58435e-05,0.000219909,1.00868,0.0,1683.0,1235.0,
44,8190.48,3.07e+12,1.0,0.0,1057.55,882.474,0.0415337,0.464133,1.83e+05,101828,10539.1,100000000.0,7.46297e-06,0.733809,0.927326,0.94,0.30558,0.163314,4.66435e-05,0.000192085,1.016,0.0,1683.0,1235.0,
49,9083.32,3.23e+12,1.0,0.0,1076.96,872.281,0.0414378,0.473792,1.83e+05,100738,12208.6,100000000.0,4.7052e-06,0.733809,0.938863,0.94,0.315156,0.0924356,3.54569e-05,0.000288406,1.01478,0.0,1683.0,1235.0,
54,9925.59,3.43e+12,1.0,0.0,1081.71,890.412,0.040951,0.460576,1.83e+05,99850.7,13986.5,100000000.0,3.36749e-06,0.733809,0.941449,0.94,0.317622,0.030489,3.23955e-05,0.000377021,1.02014,0.0,1683.0,1235.0,
59,10796.5,3.40e+12,1.0,0.0,1078.02,893.104,0.0408038,0.454976,1.83e+05,99979.2,12427.1,100000000.0,2.85146e-06,0.733809,0.938911,0.94,0.315017,0.0254589,3.46167e-05,0.000384002,1.01855,0.0,1683.0,1235.0,
64,11643,3.38e+12,1.0,0.0,1076.42,892.567,0.0407114,0.455603,1.83e+05,99994.2,12195.2,100000000.0,2.65298e-06,0.733809,0.937565,0.94,0.314605,0.0237863,3.41926e-05,0.000386731,1.01823,0.0,1683.0,1235.0,
69,12485.3,3.37e+12,1.0,0.0,1074.62,899.062,0.0406902,0.449285,1.83e+05,99993.9,11886.5,100000000.0,2.54565e-06,0.733809,0.936301,0.94,0.314458,0.0238199,3.29597e-05,0.000387417,1.01853,0.0,1683.0,1235.0,
74,13383,3.36e+12,1.0,0.0,1073.81,903.43,0.0406976,0.443783,1.83e+05,99973.8,11849.1,100000000.0,2.52774e-06,0.733809,0.935707,0.94,0.314265,0.0238055,3.27357e-05,0.00038752,1.019,0.0,1683.0,1235.0,
79,14253.9,3.34e+12,1.0,0.0,1073.61,911.321,0.0407123,0.433491,1.83e+05,99943.2,11860.3,100000000.0,2.52042e-06,0.733809,0.935568,0.94,0.314234,0.0237382,3.26234e-05,0.000387688,1.01906,0.0,1683.0,1235.0,
84,15122.7,3.33e+12,1.0,0.0,1073.81,913.327,0.0407301,0.43028,1.83e+05,99939.7,11913.5,100000000.0,2.51793e-06,0.733809,0.935683,0.94,0.314282,0.023728,3.26471e-05,0.00038758,1.01887,0.0,1683.0,1235.0,
89,15903.7,3.31e+12,1.0,0.0,1073.36,916.371,0.0407287,0.426014,1.83e+05,99944,11864.8,100000000.0,2.51504e-06,0.733809,0.935371,0.94,0.314171,0.0237257,3.25712e-05,0.000387557,1.01845,0.0,1683.0,1235.0,
94,16700.3,3.28e+12,1.0,0.0,1073.28,926.603,0.0408062,0.411276,1.83e+05,99962.6,11843.1,100000000.0,2.50999e-06,0.733809,0.935369,0.94,0.314118,0.0238252,3.27013e-05,0.000387381,1.01741,0.0,1683.0,1235.0,
99,17544.7,3.24e+12,1.0,0.0,1073.81,945.75,0.0409997,0.384124,1.83e+05,99916.6,11849,100000000.0,2.49617e-06,0.733809,0.935773,0.94,0.314255,0.0238553,3.2826e-05,0.000387148,1.01678,0.0,1683.0,1235.0,
104,18390.8,3.20e+12,1.0,0.0,1074.26,959.529,0.0410918,0.365148,1.83e+05,99857.8,11872.1,100000000.0,2.48264e-06,0.733809,0.936116,0.94,0.314364,0.0237312,3.2935e-05,0.000387296,1.01692,0.0,1683.0,1235.0,
109,19264.6,3.18e+12,1.0,0.0,1074.54,997.012,0.0415844,0.311565,1.83e+05,99819.2,11855.4,100000000.0,2.46715e-06,0.733809,0.936496,0.94,0.314327,0.0237367,3.34842e-05,0.000387037,1.01549,0.0,1683.0,1235.0,
114,20146.4,3.14e+12,1.0,0.0,1074.09,1029.92,0.0419987,0.265155,1.83e+05,99791.3,11878.6,100000000.0,2.4535e-06,0.733809,0.936336,0.94,0.314182,0.0237408,3.36515e-05,0.000387008,1.01457,0.0,1683.0,1235.0,
119,20958,3.11e+12,1.0,0.0,1074.11,1060.77,0.0425215,0.22072,1.83e+05,99722.4,11896.4,100000000.0,2.44406e-06,0.733809,0.936464,0.94,0.314249,0.0237711,3.36067e-05,0.00038664,1.01419,0.0,1683.0,1235.0,
124,21774.1,3.10e+12,1.0,0.0,1074.45,1082.16,0.0428543,0.190744,1.83e+05,99656,11938.7,100000000.0,2.44034e-06,0.733809,0.936775,0.94,0.314374,0.0237815,3.36336e-05,0.000386442,1.01403,0.0,1683.0,1235.0,
129,22618.3,3.09e+12,1.0,0.0,1074.35,1086.56,0.0428957,0.184564,1.83e+05,99659.1,11926.5,100000000.0,2.43856e-06,0.733809,0.936736,0.94,0.314305,0.0237752,3.37565e-05,0.000386455,1.01377,0.0,1683.0,1235.0,
134,23473.2,3.08e+12,1.0,0.0,1074.36,1088.28,0.0429278,0.182167,1.83e+05,99652.6,11929.9,100000000.0,2.43813e-06,0.733809,0.936757,0.94,0.31431,0.0237993,3.37678e-05,0.000386396,1.01371,0.0,1683.0,1235.0,
139,24361.2,3.07e+12,1.0,0.0,1074.35,1088.3,0.0429226,0.182033,1.83e+05,99655.3,11925.5,100000000.0,2.43721e-06,0.733809,0.936747,0.94,0.314294,0.0238741,3.38034e-05,0.000386242,1.01341,0.0,1683.0,1235.0,
144,25328.2,3.07e+12,1.0,0.0,1074.34,1087.92,0.0429161,0.182505,1.83e+05,99658,11925.5,100000000.0,2.43705e-06,0.733809,0.93674,0.94,0.314289,0.0238985,3.38113e-05,0.000386193,1.01331,0.0,1683.0,1235.0,
149,26292.5,3.06e+12,1.0,0.0,1074.32,1087.89,0.0429182,0.182532,1.83e+05,99660.3,11922.9,100000000.0,2.43701e-06,0.733809,0.936726,0.94,0.314276,0.0239229,3.38282e-05,0.000386147,1.01321,0.0,1683.0,1235.0,
154,27243.8,3.06e+12,1.0,0.0,1074.32,1087.89,0.0429182,0.182532,1.83e+05,99660.3,11922.9,100000000.0,2.43701e-06,0.733809,0.936726,0.94,0.314276,0.0239229,3.38282e-05,0.000386147,1.01321,0.0,1683.0,1235.0,
159,28123.4,3.06e+12,1.0,0.0,1074.31,1087.58,0.0429157,0.18297,1.83e+05,99661.3,11922.1,100000000.0,2.43693e-06,0.733809,0.936721,0.94,0.314274,0.0239316,3.38279e-05,0.000386133,1.0132,0.0,1683.0,1235.0,
164,29032.4,3.06e+12,1.0,0.0,1074.34,1088.49,0.0429291,0.18169,1.83e+05,99659.1,11926,100000000.0,2.43687e-06,0.733809,0.936747,0.94,0.314279,0.0239277,3.38466e-05,0.000386138,1.01319,0.0,1683.0,1235.0,
169,29898.8,3.06e+12,1.0,0.0,1074.35,1088.55,0.0429295,0.181601,1.83e+05,99658.8,11927.3,100000000.0,2.43683e-06,0.733809,0.936752,0.94,0.314281,0.0239258,3.38481e-05,0.000386144,1.0132,0.0,1683.0,1235.0,
174,30955.3,3.06e+12,1.0,0.0,1074.38,1089.1,0.0429385,0.180819,1.83e+05,99658.3,11931.5,100000000.0,2.43674e-06,0.733809,0.936776,0.94,0.314281,0.0239427,3.38773e-05,0.000386117,1.01314,0.0,1683.0,1235.0,
179,31777.4,3.06e+12,1.0,0.0,1074.38,1089.1,0.0429385,0.180819,1.83e+05,99658.3,11931.5,100000000.0,2.43674e-06,0.733809,0.936776,0.94,0.314281,0.0239427,3.38773e-05,0.000386117,1.01314,0.0,1683.0,1235.0,
184,32678.4,3.06e+12,1.0,0.0,1074.38,1089.1,0.0429385,0.180819,1.83e+05,99658.3,11931.5,100000000.0,2.43674e-06,0.733809,0.936776,0.94,0.314281,0.0239427,3.38773e-05,0.000386117,1.01314,0.0,1683.0,1235.0,
189,33527,3.06e+12,1.0,0.0,1074.38,1089.1,0.0429385,0.180819,1.83e+05,99658.3,11931.5,100000000.0,2.43674e-06,0.733809,0.936776,0.94,0.314281,0.0239427,3.38773e-05,0.000386117,1.01314,0.0,1683.0,1235.0,
194,34371.3,3.06e+12,1.0,0.0,1074.38,1089.1,0.0429385,0.180819,1.83e+05,99658.3,11931.5,100000000.0,2.43674e-06,0.733809,0.936776,0.94,0.314281,0.0239427,3.38773e-05,0.000386117,1.01314,0.0,1683.0,1235.0,
199,34909.3,3.06e+12,1.0,0.0,1074.41,1090.62,0.0429588,0.178622,1.83e+05,99656.6,11935.7,100000000.0,2.43671e-06,0.733809,0.936807,0.94,0.314288,0.0239383,3.38962e-05,0.000386103,1.01308,0.0,1683.0,1235.0,