Folder: optimizationPaper/results/E_Glass/E_Glass_linear_tga_M

Note: results/E_Glass/E_Glass_linear_tga_M/E_Glass_linear_tga_M_solution.txt
A	 = 2.41e+12,
C0	 = 1.0,0.0,
Cpa	 = 1114.96083912,440.887779518,
Cpb	 = 0.0855539659409,1.00394122442,
E	 = 1.82e+05,
Hp	 = 102452.575562,
K	 = 38288.4453994,100000000.0,
Value	 = 5.32879660768e-06,
Xi	 = 0.733808674985,
eps	 = 0.989299940151,0.94,
ka	 = 0.313419464155,0.0363391558271,
kb	 = 8.9752159968e-05,0.000383380680272,
n	 = 1.01678263763,
nO2	 = 0.0,
rho	 = 1683.0,1235.0,

File: E_Glass_linear_tga_M_0_cone_Bh.csv
# Time [s], Convective Heat Transfer Coefficient [W/m2K]
0.000000000000000000e+00,0.000000000000000000e+00
7,0.0578049
14,0.434114
21,1.05846
28,1.72388
35,2.35166
42,2.92308
49,3.43824
56,3.9025
63,4.32219
70,4.70323
77,5.05075
84,5.36916
91,5.66215
98,5.93282
105,6.1838
112,6.41733
119,6.6353
126,6.83934
133,7.03085
140,7.21104
147,7.38097
154,7.54156
161,7.69362
168,7.83787
175,7.97493
182,8.10535
189,8.22965
196,8.34824
203,8.46154
210,8.56988
217,8.67359
224,8.77294
231,8.86818
238,8.95954
245,9.04722
252,9.13141
259,9.21225
266,9.2899
273,9.36449
280,9.43613
287,9.50492
294,9.57095
301,9.6343
308,9.69504
315,9.75323
322,9.80893
329,9.86218
336,9.91302
343,9.96148
350,10.0076
357,10.0514
364,10.093
371,10.1323
378,10.1694
385,10.2044
392,10.2373
399,10.2681
406,10.2969
413,10.3238
420,10.3488
427,10.3721
434,10.3938
441,10.4138
448,10.4325
455,10.4497
462,10.4657
469,10.4806
476,10.4945
483,10.5075
490,10.5196
497,10.5311
504,10.5419
511,10.5521
518,10.562
525,10.5714
532,10.5805
539,10.5893
546,10.598
553,10.6065
560,10.6148
567,10.6231
574,10.6314
581,10.6396
588,10.6479
595,10.6562
602,10.6646
609,10.6731
616,10.6818
623,10.6905
630,10.6994
637,10.7085
644,10.7177
651,10.7272
658,10.7369
665,10.7468
672,10.757
679,10.7675
686,10.7782
693,10.7893
700,10.8006
707,10.8124
714,10.8244
721,10.8369
728,10.8498
735,10.8631
742,10.8768
749,10.891
756,10.9056
763,10.9208
770,10.9364
777,10.9526
784,10.9692
791,10.9864
798,11.0041
805,11.0222
812,11.0408
819,11.0597
826,11.079
833,11.0984
840,11.118
847,11.1376
854,11.157
861,11.1761
868,11.1949
875,11.2132
882,11.231
889,11.2481
896,11.2646
903,11.2804
910,11.2955
917,11.31
924,11.324
931,11.3373
938,11.3502
945,11.3625
952,11.3744
959,11.3858
966,11.3968
973,11.4074
980,11.4176
987,11.4274
994,11.4369
1000,11.4447
1010,11.4572
1020,11.4692
1020,11.4692
1030,11.4805
1040,11.4912
1040,11.4912
1050,11.5014
1060,11.5111
1060,11.5111
1070,11.5203
1080,11.529
1090,11.5373
1090,11.5373
1100,11.5452
1110,11.5527
1110,11.5527
1120,11.5598
1130,11.5666
1130,11.5666
1140,11.573
1150,11.5791
1160,11.5849
1160,11.5849
1170,11.5904
1180,11.5957
1180,11.5957
1190,11.6007
1200,11.6054
1200,11.6054
1210,11.6099
1220,11.6142
1230,11.6183
1230,11.6183
1240,11.6222
1250,11.6258
1250,11.6258
1260,11.6293
1270,11.6327
1270,11.6327
1280,11.6358
1290,11.6388
1300,11.6417
1300,11.6417
1310,11.6444
1320,11.647
1320,11.647
1330,11.6495
1340,11.6518
1340,11.6518
1350,11.654
1360,11.6562
1370,11.6582
1370,11.6582
1380,11.6601
1390,11.6619
1390,11.6619
1400,11.6636
1410,11.6653
1410,11.6653
1420,11.6668
1430,11.6683
1440,11.6698
1440,11.6698
1450,11.6711
1460,11.6724
1460,11.6724
1470,11.6736
1480,11.6748
1480,11.6748
1490,11.6759
1500,11.6769
1510,11.6779
1510,11.6779
1520,11.6789
1530,11.6798
1530,11.6798
1540,11.6806
1550,11.6814
1550,11.6814
1560,11.6822
1570,11.6829
1580,11.6836
1580,11.6836
1590,11.6843
1600,11.6849
1600,11.6849
1610,11.6856
1620,11.6861
1620,11.6861
1630,11.6867
1640,11.6872
1650,11.6877
1650,11.6877
1660,11.6882
1670,11.6886
1670,11.6886
1680,11.689
1690,11.6894
1690,11.6894
1700,11.6898
1710,11.6902
1720,11.6905
1720,11.6905
1730,11.6909
1740,11.6912
1740,11.6912
1750,11.6915
1760,11.6918
1760,11.6918
1770,11.692
1780,11.6923
1790,11.6926
1790,11.6926
1800,11.6928
1800,11.6928

File: E_Glass_linear_tga_M_0_cone_BT.csv
# Time [s], Temperature [C]
0.000000000000000000e+00,25
7,25.0001
14,25.0233
21,25.3377
28,26.4588
35,28.7033
42,32.112
49,36.5738
56,41.9239
63,47.9923
70,54.6249
77,61.6892
84,69.0747
91,76.6907
98,84.4638
105,92.3342
112,100.254
119,108.186
126,116.099
133,123.967
140,131.773
147,139.501
154,147.139
161,154.677
168,162.108
175,169.427
182,176.63
189,183.713
196,190.674
203,197.511
210,204.223
217,210.809
224,217.267
231,223.597
238,229.798
245,235.87
252,241.811
259,247.621
266,253.298
273,258.842
280,264.249
287,269.52
294,274.651
301,279.642
308,284.488
315,289.189
322,293.741
329,298.141
336,302.387
343,306.476
350,310.405
357,314.171
364,317.772
371,321.207
378,324.475
385,327.574
392,330.507
399,333.273
406,335.876
413,338.318
420,340.605
427,342.741
434,344.734
441,346.59
448,348.317
455,349.925
462,351.422
469,352.818
476,354.122
483,355.343
490,356.49
497,357.572
504,358.597
511,359.573
518,360.508
525,361.407
532,362.277
539,363.123
546,363.952
553,364.766
560,365.571
567,366.37
574,367.167
581,367.965
588,368.766
595,369.573
602,370.388
609,371.215
616,372.054
623,372.907
630,373.777
637,374.665
644,375.574
651,376.504
658,377.457
665,378.436
672,379.442
679,380.476
686,381.541
693,382.639
700,383.772
707,384.941
714,386.149
721,387.398
728,388.69
735,390.028
742,391.413
749,392.848
756,394.335
763,395.876
770,397.473
777,399.126
784,400.837
791,402.606
798,404.43
805,406.31
812,408.24
819,410.215
826,412.229
833,414.273
840,416.335
847,418.404
854,420.466
861,422.507
868,424.515
875,426.478
882,428.386
889,430.234
896,432.016
903,433.731
910,435.381
917,436.966
924,438.49
931,439.956
938,441.367
945,442.726
952,444.036
959,445.299
966,446.517
973,447.692
980,448.827
987,449.922
994,450.98
1000,451.857
1010,453.262
1020,454.599
1020,454.599
1030,455.871
1040,457.081
1040,457.081
1050,458.232
1060,459.327
1060,459.327
1070,460.369
1080,461.36
1090,462.304
1090,462.304
1100,463.201
1110,464.055
1110,464.055
1120,464.867
1130,465.64
1130,465.64
1140,466.375
1150,467.075
1160,467.741
1160,467.741
1170,468.374
1180,468.976
1180,468.976
1190,469.549
1200,470.095
1200,470.095
1210,470.613
1220,471.107
1230,471.577
1230,471.577
1240,472.023
1250,472.448
1250,472.448
1260,472.853
1270,473.237
1270,473.237
1280,473.603
1290,473.951
1300,474.282
1300,474.282
1310,474.598
1320,474.897
1320,474.897
1330,475.182
1340,475.454
1340,475.454
1350,475.712
1360,475.957
1370,476.191
1370,476.191
1380,476.413
1390,476.625
1390,476.625
1400,476.826
1410,477.017
1410,477.017
1420,477.199
1430,477.372
1440,477.537
1440,477.537
1450,477.694
1460,477.843
1460,477.843
1470,477.984
1480,478.119
1480,478.119
1490,478.248
1500,478.37
1510,478.486
1510,478.486
1520,478.596
1530,478.702
1530,478.702
1540,478.802
1550,478.897
1550,478.897
1560,478.987
1570,479.073
1580,479.155
1580,479.155
1590,479.233
1600,479.307
1600,479.307
1610,479.378
1620,479.445
1620,479.445
1630,479.509
1640,479.569
1650,479.627
1650,479.627
1660,479.682
1670,479.734
1670,479.734
1680,479.784
1690,479.831
1690,479.831
1700,479.876
1710,479.919
1720,479.96
1720,479.96
1730,479.999
1740,480.035
1740,480.035
1750,480.071
1760,480.104
1760,480.104
1770,480.136
1780,480.166
1790,480.195
1790,480.195
1800,480.222
1800,480.222

File: E_Glass_linear_tga_M_0_cone_FT.csv
# Time [s], Temperature [C]
0.000000000000000000e+00,25
7,91.2956
14,124.939
21,148.536
28,167.125
35,182.572
42,195.816
49,207.415
56,217.737
63,227.046
70,235.534
77,243.354
84,250.624
91,257.437
98,263.868
105,269.976
112,275.804
119,281.385
126,286.745
133,291.903
140,296.876
147,301.68
154,306.33
161,310.835
168,315.206
175,319.449
182,323.57
189,327.573
196,331.461
203,335.235
210,338.897
217,342.447
224,345.882
231,349.206
238,352.417
245,355.509
252,358.489
259,361.355
266,364.096
273,366.729
280,369.251
287,371.649
294,373.949
301,376.146
308,378.23
315,380.231
322,382.147
329,383.966
336,385.725
343,387.419
350,389.034
357,390.611
364,392.142
371,393.612
378,395.059
385,396.475
392,397.846
399,399.203
406,400.536
413,401.835
420,403.119
427,404.385
434,405.619
441,406.84
448,408.04
455,409.209
462,410.358
469,411.485
476,412.584
483,413.66
490,414.712
497,415.734
504,416.734
511,417.706
518,418.656
525,419.579
532,420.479
539,421.359
546,422.215
553,423.05
560,423.867
567,424.665
574,425.444
581,426.207
588,426.955
595,427.688
602,428.406
609,429.113
616,429.808
623,430.492
630,431.165
637,431.829
644,432.484
651,433.13
658,433.771
665,434.403
672,435.033
679,435.655
686,436.273
693,436.888
700,437.499
707,438.109
714,438.715
721,439.323
728,439.928
735,440.535
742,441.142
749,441.751
756,442.361
763,442.975
770,443.593
777,444.213
784,444.839
791,445.47
798,446.108
805,446.75
812,447.401
819,448.057
826,448.718
833,449.388
840,450.064
847,450.744
854,451.43
861,452.118
868,452.807
875,453.496
882,454.183
889,454.865
896,455.54
903,456.205
910,456.861
917,457.503
924,458.13
931,458.742
938,459.338
945,459.917
952,460.478
959,461.022
966,461.55
973,462.06
980,462.553
987,463.031
994,463.492
1000,463.876
1010,464.49
1020,465.075
1020,465.075
1030,465.632
1040,466.162
1040,466.162
1050,466.668
1060,467.148
1060,467.148
1070,467.605
1080,468.041
1090,468.455
1090,468.455
1100,468.849
1110,469.225
1110,469.225
1120,469.582
1130,469.922
1130,469.922
1140,470.246
1150,470.554
1160,470.846
1160,470.846
1170,471.126
1180,471.391
1180,471.391
1190,471.643
1200,471.884
1200,471.884
1210,472.113
1220,472.33
1230,472.538
1230,472.538
1240,472.734
1250,472.922
1250,472.922
1260,473.1
1270,473.269
1270,473.269
1280,473.431
1290,473.584
1300,473.731
1300,473.731
1310,473.87
1320,474.002
1320,474.002
1330,474.129
1340,474.248
1340,474.248
1350,474.361
1360,474.471
1370,474.574
1370,474.574
1380,474.672
1390,474.764
1390,474.764
1400,474.853
1410,474.939
1410,474.939
1420,475.019
1430,475.095
1440,475.167
1440,475.167
1450,475.236
1460,475.304
1460,475.304
1470,475.366
1480,475.425
1480,475.425
1490,475.482
1500,475.536
1510,475.587
1510,475.587
1520,475.635
1530,475.683
1530,475.683
1540,475.727
1550,475.769
1550,475.769
1560,475.809
1570,475.847
1580,475.883
1580,475.883
1590,475.917
1600,475.95
1600,475.95
1610,475.981
1620,476.011
1620,476.011
1630,476.039
1640,476.067
1650,476.092
1650,476.092
1660,476.117
1670,476.14
1670,476.14
1680,476.162
1690,476.182
1690,476.182
1700,476.202
1710,476.221
1720,476.239
1720,476.239
1730,476.256
1740,476.272
1740,476.272
1750,476.288
1760,476.302
1760,476.302
1770,476.316
1780,476.33
1790,476.342
1790,476.342
1800,476.354
1800,476.354

File: E_Glass_linear_tga_M_0_cone_Mass.csv
# Time [s], Mass [Kg]
0.000000000000000000e+00,1
7,1
14,1
21,1
28,1
35,1
42,1
49,1
56,1
63,1
70,1
77,1
84,1
91,0.999999
98,0.999999
105,0.999998
112,0.999996
119,0.999994
126,0.99999
133,0.999985
140,0.999978
147,0.999967
154,0.999953
161,0.999933
168,0.999905
175,0.999868
182,0.99982
189,0.999756
196,0.999673
203,0.999567
210,0.999431
217,0.999261
224,0.999048
231,0.998785
238,0.998463
245,0.998072
252,0.997601
259,0.99704
266,0.996377
273,0.995602
280,0.994701
287,0.993666
294,0.992484
301,0.991148
308,0.989648
315,0.987977
322,0.98613
329,0.984102
336,0.981889
343,0.97949
350,0.976902
357,0.974127
364,0.971164
371,0.968017
378,0.964688
385,0.961181
392,0.957502
399,0.953657
406,0.949653
413,0.9455
420,0.941206
427,0.936784
434,0.932244
441,0.927601
448,0.922865
455,0.918052
462,0.913175
469,0.908248
476,0.903283
483,0.898295
490,0.893294
497,0.888293
504,0.883303
511,0.878332
518,0.87339
525,0.868484
532,0.863623
539,0.858812
546,0.854056
553,0.849361
560,0.844731
567,0.840169
574,0.835678
581,0.831262
588,0.826922
595,0.822661
602,0.81848
609,0.814381
616,0.810366
623,0.806435
630,0.802591
637,0.798833
644,0.795164
651,0.791585
658,0.788097
665,0.784702
672,0.7814
679,0.778193
686,0.775083
693,0.772072
700,0.769161
707,0.766353
714,0.763649
721,0.761052
728,0.758565
735,0.756189
742,0.753927
749,0.751783
756,0.749758
763,0.747855
770,0.746077
777,0.744426
784,0.742904
791,0.741513
798,0.740254
805,0.739125
812,0.738127
819,0.737257
826,0.73651
833,0.735882
840,0.735363
847,0.734945
854,0.734618
861,0.734368
868,0.734183
875,0.734052
882,0.733961
889,0.733901
896,0.733862
903,0.733839
910,0.733825
917,0.733817
924,0.733813
931,0.733811
938,0.73381
945,0.733809
952,0.733809
959,0.733809
966,0.733809
973,0.733809
980,0.733809
987,0.733809
994,0.733809
1000,0.733809
1010,0.733809
1020,0.733809
1020,0.733809
1030,0.733809
1040,0.733809
1040,0.733809
1050,0.733809
1060,0.733809
1060,0.733809
1070,0.733809
1080,0.733809
1090,0.733809
1090,0.733809
1100,0.733809
1110,0.733809
1110,0.733809
1120,0.733809
1130,0.733809
1130,0.733809
1140,0.733809
1150,0.733809
1160,0.733809
1160,0.733809
1170,0.733809
1180,0.733809
1180,0.733809
1190,0.733809
1200,0.733809
1200,0.733809
1210,0.733809
1220,0.733809
1230,0.733809
1230,0.733809
1240,0.733809
1250,0.733809
1250,0.733809
1260,0.733809
1270,0.733809
1270,0.733809
1280,0.733809
1290,0.733809
1300,0.733809
1300,0.733809
1310,0.733809
1320,0.733809
1320,0.733809
1330,0.733809
1340,0.733809
1340,0.733809
1350,0.733809
1360,0.733809
1370,0.733809
1370,0.733809
1380,0.733809
1390,0.733809
1390,0.733809
1400,0.733809
1410,0.733809
1410,0.733809
1420,0.733809
1430,0.733809
1440,0.733809
1440,0.733809
1450,0.733809
1460,0.733809
1460,0.733809
1470,0.733809
1480,0.733809
1480,0.733809
1490,0.733809
1500,0.733809
1510,0.733809
1510,0.733809
1520,0.733809
1530,0.733809
1530,0.733809
1540,0.733809
1550,0.733809
1550,0.733809
1560,0.733809
1570,0.733809
1580,0.733809
1580,0.733809
1590,0.733809
1600,0.733809
1600,0.733809
1610,0.733809
1620,0.733809
1620,0.733809
1630,0.733809
1640,0.733809
1650,0.733809
1650,0.733809
1660,0.733809
1670,0.733809
1670,0.733809
1680,0.733809
1690,0.733809
1690,0.733809
1700,0.733809
1710,0.733809
1720,0.733809
1720,0.733809
1730,0.733809
1740,0.733809
1740,0.733809
1750,0.733809
1760,0.733809
1760,0.733809
1770,0.733809
1780,0.733809
1790,0.733809
1790,0.733809
1800,0.733809
1800,0.733809

File: E_Glass_linear_tga_M_progressMonitor.csv
Loop,Time,r0-A,p0-C0,p1-C0,p0-Cpa,p1-Cpa,p0-Cpb,p1-Cpb,r0-E,r0-Hp,p0-K,p1-K,Value,r0-Xi,p0-eps,p1-eps,p0-ka,p1-ka,p0-kb,p1-kb,r0-n,r0-nO2,p0-rho,p1-rho,
-1,0,2.40e+12,1.0,0.0,865.57,1927.31,0.170028,0.53255,1.64e+05,193738,7815.71,100000000.0,2.98458e-05,0.733809,0.608112,0.94,0.1939,0.294298,0.000137907,0.000283626,1.07808,0.0,1683.0,1235.0,
2,1292.15,2.36e+12,1.0,0.0,604.573,1712.91,0.117592,0.434656,1.74e+05,181445,19190.4,100000000.0,1.34466e-05,0.733809,0.550489,0.94,0.426822,0.221819,6.85474e-05,0.000583916,1.02518,0.0,1683.0,1235.0,
5,2664.75,2.30e+12,1.0,0.0,435.513,1898.9,0.062766,0.664908,1.76e+05,152075,18937,100000000.0,7.65701e-06,0.733809,0.457346,0.94,0.313376,0.142357,3.16639e-05,0.000597713,1.02591,0.0,1683.0,1235.0,
8,4185.6,2.25e+12,1.0,0.0,333.471,2131.51,0.071853,0.753322,1.75e+05,148679,12586,100000000.0,5.57931e-06,0.733809,0.40359,0.94,0.183645,0.127486,2.54546e-05,0.000655648,1.00769,0.0,1683.0,1235.0,
11,5830.13,2.25e+12,1.0,0.0,311.474,2065.91,0.0672268,0.75813,1.75e+05,147297,12517.5,100000000.0,5.49931e-06,0.733809,0.39206,0.94,0.161218,0.119437,2.25095e-05,0.000647098,1.00833,0.0,1683.0,1235.0,
14,7430.41,2.27e+12,1.0,0.0,313.637,1921.81,0.0728424,0.791018,1.76e+05,146988,11740.7,100000000.0,5.48469e-06,0.733809,0.396288,0.94,0.16446,0.104519,3.11934e-05,0.000643757,1.00437,0.0,1683.0,1235.0,
17,9047.82,2.39e+12,1.0,0.0,296.143,2450.74,0.128728,0.547313,1.76e+05,146380,15026.9,100000000.0,5.43935e-06,0.733809,0.403589,0.94,0.133677,0.271205,8.95208e-05,0.000450843,0.956337,0.0,1683.0,1235.0,
20,10710.9,2.49e+12,1.0,0.0,305.03,2735.95,0.113918,0.521839,1.77e+05,143711,15099.8,100000000.0,5.42144e-06,0.733809,0.408979,0.94,0.142263,0.340512,6.77691e-05,0.000386648,0.918021,0.0,1683.0,1235.0,
23,12309.6,2.44e+12,1.0,0.0,321.532,2486.42,0.0537731,0.781351,1.78e+05,136484,17991.1,100000000.0,5.40867e-06,0.733809,0.413246,0.94,0.159257,0.251896,1.54528e-05,0.00049182,0.900785,0.0,1683.0,1235.0,
26,13885.5,2.44e+12,1.0,0.0,330.123,2459.45,0.03166,0.764855,1.79e+05,135401,17102.2,100000000.0,5.40629e-06,0.733809,0.414525,0.94,0.158956,0.231606,1.24932e-05,0.000517224,0.900454,0.0,1683.0,1235.0,
29,15462.1,2.44e+12,1.0,0.0,330.758,2403.92,0.0277343,0.78378,1.79e+05,134735,17370.2,100000000.0,5.40535e-06,0.733809,0.415123,0.94,0.158988,0.231648,1.12179e-05,0.000507959,0.900027,0.0,1683.0,1235.0,
32,16981,2.41e+12,1.0,0.0,328.958,2248.68,0.0367552,1.02849,1.79e+05,135453,20899.4,100000000.0,5.40431e-06,0.733809,0.415951,0.94,0.16012,0.249494,1.15157e-05,0.000485417,0.900635,0.0,1683.0,1235.0,
35,18469.2,2.44e+12,1.0,0.0,326.395,2257.97,0.0441846,1.02285,1.79e+05,135307,22604.2,100000000.0,5.40265e-06,0.733809,0.417187,0.94,0.159354,0.261765,1.17265e-05,0.000470065,0.900212,0.0,1683.0,1235.0,
38,19949.6,2.45e+12,1.0,0.0,331.073,2153.83,0.0322599,1.00271,1.79e+05,133635,19130.2,100000000.0,5.40051e-06,0.733809,0.419704,0.94,0.160506,0.211311,1.11323e-05,0.000523039,0.900935,0.0,1683.0,1235.0,
41,21553.5,2.45e+12,1.0,0.0,332.67,2003.81,0.0308443,1.03059,1.80e+05,131147,13841.9,100000000.0,5.39643e-06,0.733809,0.424674,0.94,0.161493,0.160946,1.10541e-05,0.000573466,0.902398,0.0,1683.0,1235.0,
44,23124.2,2.46e+12,1.0,0.0,333.065,1951.89,0.0326516,1.03523,1.80e+05,130074,11778.7,100000000.0,5.39437e-06,0.733809,0.42749,0.94,0.161812,0.136418,1.11325e-05,0.0006024,0.903086,0.0,1683.0,1235.0,
47,24738.6,2.47e+12,1.0,0.0,334.247,1855.92,0.0367697,1.03285,1.81e+05,127891,8162.05,100000000.0,5.39206e-06,0.733809,0.433794,0.94,0.162526,0.0800205,1.11269e-05,0.000672957,0.904527,0.0,1683.0,1235.0,
50,26323.4,2.51e+12,1.0,0.0,294.771,2576.46,0.138688,0.184463,1.80e+05,132252,38114,100000000.0,5.38729e-06,0.733809,0.431862,0.94,0.149111,0.105874,5.18064e-05,0.000664766,0.902555,0.0,1683.0,1235.0,
53,27955.9,2.57e+12,1.0,0.0,281.345,2642.03,0.180712,0.126429,1.80e+05,132750,39061.6,100000000.0,5.38365e-06,0.733809,0.43433,0.94,0.154355,0.0835527,5.27563e-05,0.00070382,0.902505,0.0,1683.0,1235.0,
56,29570.5,2.57e+12,1.0,0.0,280.194,2637.17,0.180635,0.158516,1.80e+05,132240,39903.1,100000000.0,5.38172e-06,0.733809,0.434013,0.94,0.156025,0.0960429,4.76806e-05,0.000684753,0.900219,0.0,1683.0,1235.0,
59,31186.7,2.57e+12,1.0,0.0,280.136,2647.05,0.180667,0.128802,1.80e+05,132077,39971,100000000.0,5.38156e-06,0.733809,0.434263,0.94,0.1558,0.0884739,4.84405e-05,0.000693861,0.900054,0.0,1683.0,1235.0,
62,32799,2.56e+12,1.0,0.0,280.12,2650.26,0.180756,0.116726,1.80e+05,131992,39995.9,100000000.0,5.38153e-06,0.733809,0.434429,0.94,0.155792,0.0833827,4.86925e-05,0.000700523,0.900006,0.0,1683.0,1235.0,
65,34356.9,2.56e+12,1.0,0.0,280.105,2649.1,0.180765,0.122303,1.80e+05,132025,39990.5,100000000.0,5.38152e-06,0.733809,0.434358,0.94,0.155807,0.0856111,4.85505e-05,0.000697672,0.900013,0.0,1683.0,1235.0,
68,35855.3,2.56e+12,1.0,0.0,280.115,2650.42,0.180772,0.115342,1.80e+05,131979,39996.7,100000000.0,5.38151e-06,0.733809,0.434448,0.94,0.155808,0.0825403,4.87208e-05,0.000701607,0.900018,0.0,1683.0,1235.0,
71,37350.1,2.56e+12,1.0,0.0,280.115,2648.73,0.180779,0.118913,1.80e+05,131993,39993.9,100000000.0,5.38151e-06,0.733809,0.434425,0.94,0.155865,0.0833996,4.85913e-05,0.000700468,0.900023,0.0,1683.0,1235.0,
74,38805.7,2.56e+12,1.0,0.0,280.115,2648.73,0.180779,0.118913,1.80e+05,131993,39993.9,100000000.0,5.38151e-06,0.733809,0.434425,0.94,0.155865,0.0833996,4.85913e-05,0.000700468,0.900023,0.0,1683.0,1235.0,
77,40273.4,2.29e+12,1.0,0.0,1090.68,1436.54,0.164292,1.01976,1.78e+05,116886,23261.7,100000000.0,5.37508e-06,0.733809,0.94132,0.94,0.263832,0.106554,0.000174541,0.000441664,0.926648,0.0,1683.0,1235.0,
80,41729.2,2.28e+12,1.0,0.0,1100.93,1353.14,0.171697,1.00004,1.78e+05,116383,25005.3,100000000.0,5.36779e-06,0.733809,0.946456,0.94,0.267113,0.157643,0.000175674,0.00034205,0.93596,0.0,1683.0,1235.0,
83,43219.3,2.45e+12,1.0,0.0,1159.32,1500.22,0.0462213,0.492267,1.79e+05,116392,25924.9,100000000.0,5.35158e-06,0.733809,0.949269,0.94,0.264714,0.138272,0.00017378,0.0003488,0.964023,0.0,1683.0,1235.0,
86,44749.6,2.49e+12,1.0,0.0,1181.03,1061.6,0.0415226,0.963766,1.79e+05,115861,25464.1,100000000.0,5.34628e-06,0.733809,0.968507,0.94,0.274284,0.0366592,0.000173553,0.000491456,0.981861,0.0,1683.0,1235.0,
89,46270.1,2.51e+12,1.0,0.0,1191.09,1088.42,0.0132548,0.699765,1.79e+05,114878,28360.3,100000000.0,5.33996e-06,0.733809,0.965997,0.94,0.270225,0.0865851,0.000175831,0.000386903,0.99892,0.0,1683.0,1235.0,
92,47791.8,2.46e+12,1.0,0.0,1197.83,1037.82,0.0133579,0.570739,1.79e+05,114639,38423.4,100000000.0,5.33503e-06,0.733809,0.971014,0.94,0.273547,0.1943,0.000174305,0.000208454,1.02041,0.0,1683.0,1235.0,
95,49272.4,2.44e+12,1.0,0.0,1175.19,849.92,0.0479147,0.739863,1.79e+05,111165,38291.8,100000000.0,5.33222e-06,0.733809,0.972496,0.94,0.274061,0.0322714,0.000171589,0.000424421,1.02448,0.0,1683.0,1235.0,
98,50776.3,2.43e+12,1.0,0.0,1183.15,904.786,0.0435295,0.581986,1.79e+05,110453,39262.2,100000000.0,5.33087e-06,0.733809,0.980465,0.94,0.27798,0.128399,0.000169061,0.000272459,1.02236,0.0,1683.0,1235.0,
101,52300.4,2.42e+12,1.0,0.0,1158.78,845.31,0.08522,0.596582,1.80e+05,109385,39841.2,100000000.0,5.33047e-06,0.733809,0.982574,0.94,0.280616,0.153645,0.000164812,0.000228625,1.02493,0.0,1683.0,1235.0,
104,53769.9,2.41e+12,1.0,0.0,1121.04,648.031,0.131684,0.815638,1.80e+05,107298,39653,100000000.0,5.33011e-06,0.733809,0.982529,0.94,0.284646,0.139821,0.00015258,0.000242114,1.0236,0.0,1683.0,1235.0,
107,55264.9,2.38e+12,1.0,0.0,1122.42,475.042,0.110071,1.01534,1.81e+05,105374,38354.2,100000000.0,5.32968e-06,0.733809,0.983583,0.94,0.29616,0.100058,0.000127224,0.000291502,1.02241,0.0,1683.0,1235.0,
110,56806.7,2.39e+12,1.0,0.0,1121.3,468.015,0.10327,1.02783,1.81e+05,104901,38195.9,100000000.0,5.32943e-06,0.733809,0.984334,0.94,0.30105,0.0896244,0.00011685,0.000308592,1.01995,0.0,1683.0,1235.0,
113,58383.3,2.40e+12,1.0,0.0,1115.39,438.043,0.0932426,1.01752,1.81e+05,103062,38350.7,100000000.0,5.32898e-06,0.733809,0.988454,0.94,0.309449,0.050376,9.85282e-05,0.000363091,1.01806,0.0,1683.0,1235.0,
116,60039.6,2.41e+12,1.0,0.0,1114.96,440.888,0.085554,1.00394,1.82e+05,102453,38288.4,100000000.0,5.3288e-06,0.733809,0.9893,0.94,0.313419,0.0363392,8.97522e-05,0.000383381,1.01678,0.0,1683.0,1235.0,