Folder: optimizationPaper/results/E_Glass/E_Glass_linear_tga_M_BT

Note: results/E_Glass/E_Glass_linear_tga_M_BT/E_Glass_linear_tga_M_BT_solution.txt
A	 = 2.58e+12,
C0	 = 1.0,0.0,
Cpa	 = 1315.73137207,1249.41924068,
Cpb	 = 0.0113022445458,0.0647534631507,
E	 = 1.63e+05,
Hp	 = 236688.408357,
K	 = 2500.1767466,100000000.0,
Value	 = 0.000944379237874,
Xi	 = 0.733808674985,
eps	 = 0.711274250941,0.94,
ka	 = 1.24799928367,0.0237257676393,
kb	 = 0.000176197384309,0.000541708204734,
n	 = 1.09999762493,
nO2	 = 0.0,
rho	 = 1683.0,1235.0,

File: E_Glass_linear_tga_M_BT_0_cone_Bh.csv
# Time [s], Convective Heat Transfer Coefficient [W/m2K]
0.000000000000000000e+00,0.000000000000000000e+00
7,0.718262
14,1.85715
21,2.72053
28,3.37661
35,3.89852
42,4.32971
49,4.69655
56,5.01591
63,5.29903
70,5.55369
77,5.78547
84,5.99841
91,6.19559
98,6.37935
105,6.55152
112,6.71357
119,6.86668
126,7.01181
133,7.14976
140,7.28121
147,7.40671
154,7.52672
161,7.64165
168,7.75185
175,7.85764
182,7.95935
189,8.05728
196,8.15171
203,8.24289
210,8.33102
217,8.41626
224,8.49877
231,8.57866
238,8.65604
245,8.73099
252,8.80357
259,8.87383
266,8.94181
273,9.00749
280,9.07086
287,9.13188
294,9.19047
301,9.24653
308,9.29994
315,9.35054
322,9.39819
329,9.44273
336,9.48402
343,9.52196
350,9.5565
357,9.58765
364,9.61551
371,9.64022
378,9.662
385,9.68113
392,9.69787
399,9.71255
406,9.72546
413,9.73687
420,9.74706
427,9.75623
434,9.76461
441,9.77234
448,9.77959
455,9.78645
462,9.79305
469,9.79944
476,9.8057
483,9.81188
490,9.81803
497,9.82418
504,9.83036
511,9.83661
518,9.84293
525,9.84936
532,9.85591
539,9.8626
546,9.86945
553,9.87645
560,9.88363
567,9.89098
574,9.89853
581,9.90625
588,9.91417
595,9.92229
602,9.93061
609,9.93914
616,9.94791
623,9.95693
630,9.96621
637,9.97579
644,9.98568
651,9.99591
658,10.0065
665,10.0175
672,10.0289
679,10.0408
686,10.0532
693,10.0662
700,10.0797
707,10.0939
714,10.1089
721,10.1246
728,10.1411
735,10.1586
742,10.177
749,10.1967
756,10.2175
763,10.2397
770,10.2634
777,10.2887
784,10.3158
791,10.3449
798,10.3759
805,10.4091
812,10.4445
819,10.4819
826,10.5211
833,10.5618
840,10.6033
847,10.6448
854,10.6858
861,10.7255
868,10.7635
875,10.7998
882,10.8343
889,10.8671
896,10.8984
903,10.9284
910,10.9571
917,10.9847
924,11.0111
931,11.0366
938,11.061
945,11.0846
952,11.1073
959,11.1291
966,11.1501
973,11.1703
980,11.1898
987,11.2086
994,11.2267
1000,11.2416
1010,11.2655
1020,11.2882
1020,11.2882
1030,11.3096
1040,11.33
1040,11.33
1050,11.3493
1060,11.3676
1060,11.3676
1070,11.3849
1080,11.4013
1090,11.4169
1090,11.4169
1100,11.4317
1110,11.4457
1110,11.4457
1120,11.4589
1130,11.4715
1130,11.4715
1140,11.4834
1150,11.4947
1160,11.5054
1160,11.5054
1170,11.5155
1180,11.5252
1180,11.5252
1190,11.5343
1200,11.5429
1200,11.5429
1210,11.5511
1220,11.5589
1230,11.5662
1230,11.5662
1240,11.5732
1250,11.5798
1250,11.5798
1260,11.586
1270,11.592
1270,11.592
1280,11.5976
1290,11.6029
1300,11.608
1300,11.608
1310,11.6127
1320,11.6173
1320,11.6173
1330,11.6216
1340,11.6256
1340,11.6256
1350,11.6295
1360,11.6332
1370,11.6366
1370,11.6366
1380,11.6399
1390,11.643
1390,11.643
1400,11.646
1410,11.6488
1410,11.6488
1420,11.6514
1430,11.6539
1440,11.6563
1440,11.6563
1450,11.6585
1460,11.6607
1460,11.6607
1470,11.6627
1480,11.6646
1480,11.6646
1490,11.6664
1500,11.6681
1510,11.6698
1510,11.6698
1520,11.6713
1530,11.6728
1530,11.6728
1540,11.6742
1550,11.6755
1550,11.6755
1560,11.6767
1570,11.6779
1580,11.679
1580,11.679
1590,11.6801
1600,11.6811
1600,11.6811
1610,11.682
1620,11.6829
1620,11.6829
1630,11.6838
1640,11.6846
1650,11.6854
1650,11.6854
1660,11.6861
1670,11.6868
1670,11.6868
1680,11.6874
1690,11.688
1690,11.688
1700,11.6886
1710,11.6892
1720,11.6897
1720,11.6897
1730,11.6902
1740,11.6907
1740,11.6907
1750,11.6911
1760,11.6916
1760,11.6916
1770,11.692
1780,11.6923
1790,11.6927
1790,11.6927
1800,11.693
1800,11.693

File: E_Glass_linear_tga_M_BT_0_cone_FT.csv
# Time [s], Temperature [C]
0.000000000000000000e+00,25
7,46.7574
14,59.3312
21,68.6868
28,76.5428
35,83.6046
42,90.226
49,96.5903
56,102.793
63,108.884
70,114.889
77,120.821
84,126.687
91,132.49
98,138.233
105,143.915
112,149.54
119,155.109
126,160.625
133,166.094
140,171.523
147,176.922
154,182.301
161,187.663
168,193.001
175,198.292
182,203.505
189,208.616
196,213.614
203,218.501
210,223.285
217,227.975
224,232.576
231,237.095
238,241.531
245,245.888
252,250.161
259,254.35
266,258.45
273,262.455
280,266.356
287,270.149
294,273.818
301,277.352
308,280.748
315,283.982
322,287.045
329,289.943
336,292.648
343,295.165
350,297.516
357,299.679
364,301.673
371,303.544
378,305.266
385,306.872
392,308.419
399,309.872
406,311.267
413,312.665
420,314.018
427,315.358
434,316.746
441,318.125
448,319.523
455,321.001
462,322.495
469,324.03
476,325.668
483,327.341
490,329.073
497,330.922
504,332.82
511,334.787
518,336.871
525,339.007
532,341.206
539,343.493
546,345.813
553,348.16
560,350.536
567,352.897
574,355.231
581,357.533
588,359.779
595,361.965
602,364.094
609,366.156
616,368.158
623,370.099
630,371.987
637,373.823
644,375.609
651,377.35
658,379.05
665,380.712
672,382.338
679,383.933
686,385.497
693,387.033
700,388.545
707,390.033
714,391.502
721,392.952
728,394.386
735,395.807
742,397.216
749,398.615
756,400.007
763,401.394
770,402.779
777,404.164
784,405.551
791,406.944
798,408.345
805,409.756
812,411.182
819,412.625
826,414.087
833,415.571
840,417.076
847,418.605
854,420.153
861,421.718
868,423.291
875,424.867
882,426.435
889,427.988
896,429.519
903,431.021
910,432.488
917,433.92
924,435.313
931,436.668
938,437.983
945,439.259
952,440.497
959,441.695
966,442.854
973,443.978
980,445.066
987,446.118
994,447.136
1000,447.982
1010,449.34
1020,450.633
1020,450.633
1030,451.865
1040,453.039
1040,453.039
1050,454.157
1060,455.221
1060,455.221
1070,456.233
1080,457.197
1090,458.113
1090,458.113
1100,458.985
1110,459.813
1110,459.813
1120,460.601
1130,461.351
1130,461.351
1140,462.063
1150,462.74
1160,463.382
1160,463.382
1170,463.993
1180,464.573
1180,464.573
1190,465.125
1200,465.647
1200,465.647
1210,466.143
1220,466.616
1230,467.064
1230,467.064
1240,467.489
1250,467.892
1250,467.892
1260,468.275
1270,468.639
1270,468.639
1280,468.982
1290,469.309
1300,469.62
1300,469.62
1310,469.915
1320,470.194
1320,470.194
1330,470.458
1340,470.71
1340,470.71
1350,470.947
1360,471.174
1370,471.389
1370,471.389
1380,471.591
1390,471.785
1390,471.785
1400,471.967
1410,472.139
1410,472.139
1420,472.305
1430,472.459
1440,472.608
1440,472.608
1450,472.748
1460,472.88
1460,472.88
1470,473.007
1480,473.126
1480,473.126
1490,473.238
1500,473.346
1510,473.448
1510,473.448
1520,473.543
1530,473.634
1530,473.634
1540,473.72
1550,473.804
1550,473.804
1560,473.881
1570,473.954
1580,474.024
1580,474.024
1590,474.09
1600,474.154
1600,474.154
1610,474.213
1620,474.269
1620,474.269
1630,474.322
1640,474.373
1650,474.42
1650,474.42
1660,474.465
1670,474.508
1670,474.508
1680,474.551
1690,474.59
1690,474.59
1700,474.626
1710,474.66
1720,474.693
1720,474.693
1730,474.724
1740,474.753
1740,474.753
1750,474.781
1760,474.808
1760,474.808
1770,474.832
1780,474.856
1790,474.879
1790,474.879
1800,474.9
1800,474.9

File: E_Glass_linear_tga_M_BT_0_cone_Mass.csv
# Time [s], Mass [Kg]
0.000000000000000000e+00,1
7,1
14,1
21,1
28,1
35,1
42,1
49,1
56,1
63,1
70,1
77,1
84,1
91,1
98,1
105,1
112,1
119,1
126,1
133,1
140,1
147,1
154,1
161,0.999999
168,0.999999
175,0.999998
182,0.999997
189,0.999994
196,0.999991
203,0.999986
210,0.999978
217,0.999966
224,0.999949
231,0.999924
238,0.999888
245,0.999837
252,0.999764
259,0.999664
266,0.999525
273,0.999337
280,0.999085
287,0.99875
294,0.998311
301,0.997743
308,0.997018
315,0.996105
322,0.994974
329,0.993592
336,0.991932
343,0.98997
350,0.987689
357,0.985081
364,0.982146
371,0.978892
378,0.975334
385,0.971494
392,0.967397
399,0.963069
406,0.958538
413,0.953829
420,0.948967
427,0.943974
434,0.93887
441,0.933672
448,0.928397
455,0.923059
462,0.91767
469,0.912243
476,0.906791
483,0.901323
490,0.895851
497,0.890387
504,0.884941
511,0.879527
518,0.874154
525,0.868836
532,0.863584
539,0.858407
546,0.853314
553,0.848314
560,0.843411
567,0.83861
574,0.833911
581,0.829317
588,0.824826
595,0.820439
602,0.816156
609,0.811975
616,0.807896
623,0.803918
630,0.80004
637,0.796262
644,0.792583
651,0.789002
658,0.78552
665,0.782136
672,0.778851
679,0.775664
686,0.772576
693,0.769589
700,0.766702
707,0.763917
714,0.761237
721,0.758662
728,0.756194
735,0.753837
742,0.751594
749,0.749467
756,0.74746
763,0.745578
770,0.743826
777,0.742207
784,0.740727
791,0.739392
798,0.738206
805,0.737174
812,0.736296
819,0.735574
826,0.735002
833,0.734571
840,0.734265
847,0.734063
854,0.73394
861,0.733871
868,0.733836
875,0.73382
882,0.733813
889,0.73381
896,0.733809
903,0.733809
910,0.733809
917,0.733809
924,0.733809
931,0.733809
938,0.733809
945,0.733809
952,0.733809
959,0.733809
966,0.733809
973,0.733809
980,0.733809
987,0.733809
994,0.733809
1000,0.733809
1010,0.733809
1020,0.733809
1020,0.733809
1030,0.733809
1040,0.733809
1040,0.733809
1050,0.733809
1060,0.733809
1060,0.733809
1070,0.733809
1080,0.733809
1090,0.733809
1090,0.733809
1100,0.733809
1110,0.733809
1110,0.733809
1120,0.733809
1130,0.733809
1130,0.733809
1140,0.733809
1150,0.733809
1160,0.733809
1160,0.733809
1170,0.733809
1180,0.733809
1180,0.733809
1190,0.733809
1200,0.733809
1200,0.733809
1210,0.733809
1220,0.733809
1230,0.733809
1230,0.733809
1240,0.733809
1250,0.733809
1250,0.733809
1260,0.733809
1270,0.733809
1270,0.733809
1280,0.733809
1290,0.733809
1300,0.733809
1300,0.733809
1310,0.733809
1320,0.733809
1320,0.733809
1330,0.733809
1340,0.733809
1340,0.733809
1350,0.733809
1360,0.733809
1370,0.733809
1370,0.733809
1380,0.733809
1390,0.733809
1390,0.733809
1400,0.733809
1410,0.733809
1410,0.733809
1420,0.733809
1430,0.733809
1440,0.733809
1440,0.733809
1450,0.733809
1460,0.733809
1460,0.733809
1470,0.733809
1480,0.733809
1480,0.733809
1490,0.733809
1500,0.733809
1510,0.733809
1510,0.733809
1520,0.733809
1530,0.733809
1530,0.733809
1540,0.733809
1550,0.733809
1550,0.733809
1560,0.733809
1570,0.733809
1580,0.733809
1580,0.733809
1590,0.733809
1600,0.733809
1600,0.733809
1610,0.733809
1620,0.733809
1620,0.733809
1630,0.733809
1640,0.733809
1650,0.733809
1650,0.733809
1660,0.733809
1670,0.733809
1670,0.733809
1680,0.733809
1690,0.733809
1690,0.733809
1700,0.733809
1710,0.733809
1720,0.733809
1720,0.733809
1730,0.733809
1740,0.733809
1740,0.733809
1750,0.733809
1760,0.733809
1760,0.733809
1770,0.733809
1780,0.733809
1790,0.733809
1790,0.733809
1800,0.733809
1800,0.733809

File: E_Glass_linear_tga_M_BT_0_cone_Temp0.csv
# Time [s], Temperature [C]
0.000000000000000000e+00,25
7,25.1055
14,26.8239
21,30.7337
28,35.9626
35,41.8721
42,48.1124
49,54.4989
56,60.935
63,67.3699
70,73.777
77,80.1422
84,86.458
91,92.7201
98,98.9262
105,105.075
112,111.165
119,117.195
126,123.166
133,129.074
140,134.921
147,140.703
154,146.419
161,152.066
168,157.643
175,163.148
182,168.583
189,173.948
196,179.247
203,184.481
210,189.651
217,194.757
224,199.798
231,204.774
238,209.683
245,214.522
252,219.288
259,223.977
266,228.585
273,233.104
280,237.527
287,241.845
294,246.046
301,250.116
308,254.039
315,257.798
322,261.375
329,264.752
336,267.91
343,270.837
350,273.522
357,275.961
364,278.155
371,280.111
378,281.845
385,283.373
392,284.716
399,285.897
406,286.939
413,287.862
420,288.688
427,289.433
434,290.115
441,290.745
448,291.337
455,291.898
462,292.438
469,292.962
476,293.476
483,293.984
490,294.49
497,294.996
504,295.507
511,296.022
518,296.546
525,297.078
532,297.621
539,298.177
546,298.746
553,299.329
560,299.928
567,300.542
574,301.173
581,301.82
588,302.484
595,303.166
602,303.867
609,304.586
616,305.327
623,306.09
630,306.877
637,307.69
644,308.532
651,309.404
658,310.31
665,311.252
672,312.233
679,313.256
686,314.326
693,315.446
700,316.62
707,317.855
714,319.155
721,320.527
728,321.977
735,323.514
742,325.147
749,326.886
756,328.741
763,330.726
770,332.853
777,335.137
784,337.595
791,340.241
798,343.089
805,346.152
812,349.434
819,352.933
826,356.63
833,360.49
840,364.459
847,368.468
854,372.448
861,376.334
868,380.087
875,383.687
882,387.134
889,390.437
896,393.606
903,396.655
910,399.592
917,402.424
924,405.159
931,407.8
938,410.352
945,412.818
952,415.202
959,417.507
966,419.734
973,421.887
980,423.968
987,425.979
994,427.923
1000,429.536
1010,432.121
1020,434.582
1020,434.582
1030,436.923
1040,439.151
1040,439.151
1050,441.27
1060,443.285
1060,443.285
1070,445.202
1080,447.023
1090,448.755
1090,448.755
1100,450.401
1110,451.965
1110,451.965
1120,453.451
1130,454.862
1130,454.862
1140,456.203
1150,457.476
1160,458.686
1160,458.686
1170,459.834
1180,460.924
1180,460.924
1190,461.959
1200,462.941
1200,462.941
1210,463.873
1220,464.758
1230,465.598
1230,465.598
1240,466.394
1250,467.15
1250,467.15
1260,467.868
1270,468.548
1270,468.548
1280,469.194
1290,469.806
1300,470.387
1300,470.387
1310,470.938
1320,471.46
1320,471.46
1330,471.955
1340,472.425
1340,472.425
1350,472.871
1360,473.293
1370,473.694
1370,473.694
1380,474.073
1390,474.434
1390,474.434
1400,474.775
1410,475.099
1410,475.099
1420,475.405
1430,475.696
1440,475.972
1440,475.972
1450,476.233
1460,476.481
1460,476.481
1470,476.716
1480,476.939
1480,476.939
1490,477.15
1500,477.35
1510,477.539
1510,477.539
1520,477.719
1530,477.889
1530,477.889
1540,478.051
1550,478.204
1550,478.204
1560,478.349
1570,478.486
1580,478.616
1580,478.616
1590,478.74
1600,478.857
1600,478.857
1610,478.967
1620,479.072
1620,479.072
1630,479.172
1640,479.266
1650,479.356
1650,479.356
1660,479.44
1670,479.521
1670,479.521
1680,479.597
1690,479.669
1690,479.669
1700,479.737
1710,479.802
1720,479.863
1720,479.863
1730,479.921
1740,479.976
1740,479.976
1750,480.028
1760,480.078
1760,480.078
1770,480.125
1780,480.169
1790,480.211
1790,480.211
1800,480.251
1800,480.251

File: E_Glass_linear_tga_M_BT_progressMonitor.csv
Loop,Time,r0-A,p0-C0,p1-C0,p0-Cpa,p1-Cpa,p0-Cpb,p1-Cpb,r0-E,r0-Hp,p0-K,p1-K,Value,r0-Xi,p0-eps,p1-eps,p0-ka,p1-ka,p0-kb,p1-kb,r0-n,r0-nO2,p0-rho,p1-rho,
-1,0,2.50e+12,1.0,0.0,623.778,1820.29,0.158725,0.552521,1.85e+05,118502,10665.6,100000000.0,0.00106981,0.733809,0.722205,0.94,0.214887,0.215425,3.6565e-05,0.000303263,0.981742,0.0,1683.0,1235.0,
12,966.1386,2.33e+12,1.0,0.0,991.983,947.669,0.101736,0.419738,1.81e+05,101085,20487.8,100000000.0,4.17747e-05,0.733809,0.897166,0.94,0.289785,0.0828387,5.01764e-05,0.000313089,1.00048,0.0,1683.0,1235.0,
25,2094.66,2.38e+12,1.0,0.0,1086.82,863.987,0.118794,0.500252,1.81e+05,97601.4,22784.4,100000000.0,1.67268e-05,0.733809,0.967707,0.94,0.322391,0.0252521,4.8601e-05,0.0003691,1.00521,0.0,1683.0,1235.0,
38,3146.01,2.28e+12,1.0,0.0,1081.27,911.997,0.0715723,0.43522,1.81e+05,99194.4,13431.3,100000000.0,1.22458e-05,0.733809,0.949395,0.94,0.316931,0.0693632,4.04724e-05,0.000310959,1.00259,0.0,1683.0,1235.0,
51,4174.8,2.11e+12,1.0,0.0,1077.16,950.849,0.0536273,0.392516,1.80e+05,99271.6,12654,100000000.0,1.05391e-05,0.733809,0.941287,0.94,0.316041,0.0253582,3.40369e-05,0.000377208,0.993186,0.0,1683.0,1235.0,
64,5187.08,2.11e+12,1.0,0.0,1079,949.783,0.0537406,0.39435,1.80e+05,99290,12670.6,100000000.0,6.88005e-06,0.733809,0.942539,0.94,0.316349,0.024,3.47877e-05,0.000379455,0.992663,0.0,1683.0,1235.0,
77,6295.3,2.11e+12,1.0,0.0,1077.91,960.769,0.0530591,0.379541,1.80e+05,99265,12739.5,100000000.0,6.75011e-06,0.733809,0.94153,0.94,0.316036,0.023763,3.45469e-05,0.000379832,0.992091,0.0,1683.0,1235.0,
90,7411.46,2.11e+12,1.0,0.0,1077.01,963.719,0.0519093,0.375522,1.80e+05,99301.7,12758.5,100000000.0,6.56251e-06,0.733809,0.940622,0.94,0.315818,0.0238167,3.40412e-05,0.000379915,0.991962,0.0,1683.0,1235.0,
103,8572.11,2.13e+12,1.0,0.0,1079.88,957.205,0.0604696,0.382168,1.81e+05,99108.9,12943.4,100000000.0,6.45514e-06,0.733809,0.945145,0.94,0.316539,0.0255604,3.70391e-05,0.000376375,0.993989,0.0,1683.0,1235.0,
116,9760.69,2.13e+12,1.0,0.0,1079.88,957.205,0.0604696,0.382168,1.81e+05,99108.9,12943.4,100000000.0,6.45514e-06,0.733809,0.945145,0.94,0.316539,0.0255604,3.70391e-05,0.000376375,0.993989,0.0,1683.0,1235.0,
129,10957.1,2.13e+12,1.0,0.0,1079.88,957.205,0.0604696,0.382168,1.81e+05,99108.9,12943.4,100000000.0,6.45514e-06,0.733809,0.945145,0.94,0.316539,0.0255604,3.70391e-05,0.000376375,0.993989,0.0,1683.0,1235.0,
142,12144,2.13e+12,1.0,0.0,1079.88,957.205,0.0604696,0.382168,1.81e+05,99108.9,12943.4,100000000.0,6.45514e-06,0.733809,0.945145,0.94,0.316539,0.0255604,3.70391e-05,0.000376375,0.993989,0.0,1683.0,1235.0,
155,13330.1,2.13e+12,1.0,0.0,1079.88,957.205,0.0604696,0.382168,1.81e+05,99108.9,12943.4,100000000.0,6.45514e-06,0.733809,0.945145,0.94,0.316539,0.0255604,3.70391e-05,0.000376375,0.993989,0.0,1683.0,1235.0,
168,14506.6,2.13e+12,1.0,0.0,1079.88,957.205,0.0604696,0.382168,1.81e+05,99108.9,12943.4,100000000.0,6.45514e-06,0.733809,0.945145,0.94,0.316539,0.0255604,3.70391e-05,0.000376375,0.993989,0.0,1683.0,1235.0,
181,15670.9,2.13e+12,1.0,0.0,1079.88,957.205,0.0604696,0.382168,1.81e+05,99108.9,12943.4,100000000.0,6.45514e-06,0.733809,0.945145,0.94,0.316539,0.0255604,3.70391e-05,0.000376375,0.993989,0.0,1683.0,1235.0,
194,16813.2,2.13e+12,1.0,0.0,1079.88,957.205,0.0604696,0.382168,1.81e+05,99108.9,12943.4,100000000.0,6.45514e-06,0.733809,0.945145,0.94,0.316539,0.0255604,3.70391e-05,0.000376375,0.993989,0.0,1683.0,1235.0,
207,17989.5,2.13e+12,1.0,0.0,1079.88,957.205,0.0604696,0.382168,1.81e+05,99108.9,12943.4,100000000.0,6.45514e-06,0.733809,0.945145,0.94,0.316539,0.0255604,3.70391e-05,0.000376375,0.993989,0.0,1683.0,1235.0,
220,19176.9,2.13e+12,1.0,0.0,1079.88,957.205,0.0604696,0.382168,1.81e+05,99108.9,12943.4,100000000.0,6.45514e-06,0.733809,0.945145,0.94,0.316539,0.0255604,3.70391e-05,0.000376375,0.993989,0.0,1683.0,1235.0,
233,20354.8,2.14e+12,1.0,0.0,1080.83,961.666,0.0654543,0.374406,1.81e+05,98967.8,13070.3,100000000.0,6.44599e-06,0.733809,0.947314,0.94,0.316791,0.0265105,3.86395e-05,0.000374306,0.994995,0.0,1683.0,1235.0,
246,21547.9,2.14e+12,1.0,0.0,1080.83,961.666,0.0654543,0.374406,1.81e+05,98967.8,13070.3,100000000.0,6.44599e-06,0.733809,0.947314,0.94,0.316791,0.0265105,3.86395e-05,0.000374306,0.994995,0.0,1683.0,1235.0,
259,22738.2,2.14e+12,1.0,0.0,1080.83,961.666,0.0654543,0.374406,1.81e+05,98967.8,13070.3,100000000.0,6.44599e-06,0.733809,0.947314,0.94,0.316791,0.0265105,3.86395e-05,0.000374306,0.994995,0.0,1683.0,1235.0,
272,23938.1,2.14e+12,1.0,0.0,1080.83,961.666,0.0654543,0.374406,1.81e+05,98967.8,13070.3,100000000.0,6.44599e-06,0.733809,0.947314,0.94,0.316791,0.0265105,3.86395e-05,0.000374306,0.994995,0.0,1683.0,1235.0,
285,25130.2,2.14e+12,1.0,0.0,1080.83,961.666,0.0654543,0.374406,1.81e+05,98967.8,13070.3,100000000.0,6.44599e-06,0.733809,0.947314,0.94,0.316791,0.0265105,3.86395e-05,0.000374306,0.994995,0.0,1683.0,1235.0,
298,26299.8,2.14e+12,1.0,0.0,1080.83,961.666,0.0654543,0.374406,1.81e+05,98967.8,13070.3,100000000.0,6.44599e-06,0.733809,0.947314,0.94,0.316791,0.0265105,3.86395e-05,0.000374306,0.994995,0.0,1683.0,1235.0,
311,27493.1,2.14e+12,1.0,0.0,1080.83,961.666,0.0654543,0.374406,1.81e+05,98967.8,13070.3,100000000.0,6.44599e-06,0.733809,0.947314,0.94,0.316791,0.0265105,3.86395e-05,0.000374306,0.994995,0.0,1683.0,1235.0,
324,28662.3,2.14e+12,1.0,0.0,1080.83,961.666,0.0654543,0.374406,1.81e+05,98967.8,13070.3,100000000.0,6.44599e-06,0.733809,0.947314,0.94,0.316791,0.0265105,3.86395e-05,0.000374306,0.994995,0.0,1683.0,1235.0,
337,29844,2.14e+12,1.0,0.0,1080.83,961.666,0.0654543,0.374406,1.81e+05,98967.8,13070.3,100000000.0,6.44599e-06,0.733809,0.947314,0.94,0.316791,0.0265105,3.86395e-05,0.000374306,0.994995,0.0,1683.0,1235.0,
350,31030.6,2.14e+12,1.0,0.0,1080.83,961.666,0.0654543,0.374406,1.81e+05,98967.8,13070.3,100000000.0,6.44599e-06,0.733809,0.947314,0.94,0.316791,0.0265105,3.86395e-05,0.000374306,0.994995,0.0,1683.0,1235.0,
363,32199.4,2.14e+12,1.0,0.0,1080.83,961.666,0.0654543,0.374406,1.81e+05,98967.8,13070.3,100000000.0,6.44599e-06,0.733809,0.947314,0.94,0.316791,0.0265105,3.86395e-05,0.000374306,0.994995,0.0,1683.0,1235.0,
376,33370.8,2.14e+12,1.0,0.0,1080.83,961.666,0.0654543,0.374406,1.81e+05,98967.8,13070.3,100000000.0,6.44599e-06,0.733809,0.947314,0.94,0.316791,0.0265105,3.86395e-05,0.000374306,0.994995,0.0,1683.0,1235.0,
389,34542.9,2.14e+12,1.0,0.0,1080.83,961.666,0.0654543,0.374406,1.81e+05,98967.8,13070.3,100000000.0,6.44599e-06,0.733809,0.947314,0.94,0.316791,0.0265105,3.86395e-05,0.000374306,0.994995,0.0,1683.0,1235.0,
402,35716.9,2.14e+12,1.0,0.0,1080.83,961.666,0.0654543,0.374406,1.81e+05,98967.8,13070.3,100000000.0,6.44599e-06,0.733809,0.947314,0.94,0.316791,0.0265105,3.86395e-05,0.000374306,0.994995,0.0,1683.0,1235.0,
415,36879.2,2.14e+12,1.0,0.0,1080.83,961.666,0.0654543,0.374406,1.81e+05,98967.8,13070.3,100000000.0,6.44599e-06,0.733809,0.947314,0.94,0.316791,0.0265105,3.86395e-05,0.000374306,0.994995,0.0,1683.0,1235.0,
428,38036.4,2.13e+12,1.0,0.0,1080.54,960.744,0.0638609,0.376234,1.81e+05,99015.3,13027.4,100000000.0,6.44409e-06,0.733809,0.946627,0.94,0.316715,0.0262031,3.81307e-05,0.000375002,0.994631,0.0,1683.0,1235.0,
441,39193.3,2.13e+12,1.0,0.0,1080.54,960.744,0.0638609,0.376234,1.81e+05,99015.3,13027.4,100000000.0,6.44409e-06,0.733809,0.946627,0.94,0.316715,0.0262031,3.81307e-05,0.000375002,0.994631,0.0,1683.0,1235.0,
454,40348.2,2.13e+12,1.0,0.0,1080.54,960.744,0.0638609,0.376234,1.81e+05,99015.3,13027.4,100000000.0,6.44409e-06,0.733809,0.946627,0.94,0.316715,0.0262031,3.81307e-05,0.000375002,0.994631,0.0,1683.0,1235.0,
467,41527.9,2.13e+12,1.0,0.0,1080.54,960.744,0.0638609,0.376234,1.81e+05,99015.3,13027.4,100000000.0,6.44409e-06,0.733809,0.946627,0.94,0.316715,0.0262031,3.81307e-05,0.000375002,0.994631,0.0,1683.0,1235.0,
480,42697.7,2.13e+12,1.0,0.0,1080.54,960.744,0.0638609,0.376234,1.81e+05,99015.3,13027.4,100000000.0,6.44409e-06,0.733809,0.946627,0.94,0.316715,0.0262031,3.81307e-05,0.000375002,0.994631,0.0,1683.0,1235.0,
493,43860.6,2.13e+12,1.0,0.0,1080.54,960.744,0.0638609,0.376234,1.81e+05,99015.3,13027.4,100000000.0,6.44409e-06,0.733809,0.946627,0.94,0.316715,0.0262031,3.81307e-05,0.000375002,0.994631,0.0,1683.0,1235.0,
506,45027.9,2.13e+12,1.0,0.0,1080.54,960.744,0.0638609,0.376234,1.81e+05,99015.3,13027.4,100000000.0,6.44409e-06,0.733809,0.946627,0.94,0.316715,0.0262031,3.81307e-05,0.000375002,0.994631,0.0,1683.0,1235.0,
519,46193.3,2.13e+12,1.0,0.0,1080.54,960.744,0.0638609,0.376234,1.81e+05,99015.3,13027.4,100000000.0,6.44409e-06,0.733809,0.946627,0.94,0.316715,0.0262031,3.81307e-05,0.000375002,0.994631,0.0,1683.0,1235.0,
532,47365.9,2.13e+12,1.0,0.0,1080.54,960.744,0.0638609,0.376234,1.81e+05,99015.3,13027.4,100000000.0,6.44409e-06,0.733809,0.946627,0.94,0.316715,0.0262031,3.81307e-05,0.000375002,0.994631,0.0,1683.0,1235.0,
545,48538.9,2.13e+12,1.0,0.0,1080.54,960.744,0.0638609,0.376234,1.81e+05,99015.3,13027.4,100000000.0,6.44409e-06,0.733809,0.946627,0.94,0.316715,0.0262031,3.81307e-05,0.000375002,0.994631,0.0,1683.0,1235.0,
558,49707.2,2.13e+12,1.0,0.0,1080.54,960.744,0.0638609,0.376234,1.81e+05,99015.3,13027.4,100000000.0,6.44409e-06,0.733809,0.946627,0.94,0.316715,0.0262031,3.81307e-05,0.000375002,0.994631,0.0,1683.0,1235.0,
571,50868,2.13e+12,1.0,0.0,1080.54,960.744,0.0638609,0.376234,1.81e+05,99015.3,13027.4,100000000.0,6.44409e-06,0.733809,0.946627,0.94,0.316715,0.0262031,3.81307e-05,0.000375002,0.994631,0.0,1683.0,1235.0,
584,52028.1,2.13e+12,1.0,0.0,1080.54,960.744,0.0638609,0.376234,1.81e+05,99015.3,13027.4,100000000.0,6.44409e-06,0.733809,0.946627,0.94,0.316715,0.0262031,3.81307e-05,0.000375002,0.994631,0.0,1683.0,1235.0,
585,52126,2.13e+12,1.0,0.0,1080.54,960.744,0.0638609,0.376234,1.81e+05,99015.3,13027.4,100000000.0,6.44409e-06,0.733809,0.946627,0.94,0.316715,0.0262031,3.81307e-05,0.000375002,0.994631,0.0,1683.0,1235.0,