Folder: optimizationPaper/results/E_Glass/E_Glass_linear_tga_M_BT (part 2)

File: E_GlassLinearVirtual.csv
# Time [s],Mass [Kg/kg],BT [C],FT [C]
0.00000000000E+00,1,25,25
7,1,25.0001,88.9921
14,1,25.0241,122.43
21,1,25.3408,145.979
28,1,26.4581,164.569
35,1,28.6842,180.036
42,1,32.0563,193.309
49,1,36.4643,204.942
56,1,41.7457,215.305
63,1,47.7339,224.664
70,1,54.2777,233.221
77,1,61.2474,241.141
84,1,68.5346,248.551
91,0.999999,76.0503,255.546
98,0.999999,83.7217,262.185
105,0.999998,91.4896,268.487
112,0.999996,99.306,274.465
119,0.999994,107.132,280.139
126,0.99999,114.938,285.538
133,0.999985,122.698,290.696
140,0.999977,130.393,295.647
147,0.999966,138.01,300.416
154,0.999951,145.536,305.024
161,0.99993,152.964,309.487
168,0.999902,160.285,313.813
175,0.999865,167.496,318.012
182,0.999815,174.592,322.09
189,0.99975,181.57,326.051
196,0.999666,188.428,329.898
203,0.999558,195.163,333.634
210,0.999421,201.776,337.258
217,0.999249,208.264,340.773
224,0.999035,214.626,344.179
231,0.998771,220.863,347.474
238,0.998448,226.973,350.66
245,0.998056,232.955,353.736
252,0.997586,238.808,356.701
259,0.997025,244.533,359.556
266,0.996364,250.128,362.301
273,0.99559,255.593,364.938
280,0.994692,260.928,367.467
287,0.99366,266.132,369.893
294,0.992482,271.205,372.217
301,0.991149,276.145,374.443
308,0.989652,280.95,376.577
315,0.987984,285.618,378.624
322,0.986139,290.147,380.59
329,0.984112,294.533,382.48
336,0.981899,298.773,384.302
343,0.979498,302.865,386.062
350,0.976907,306.805,387.765
357,0.974128,310.591,389.418
364,0.971161,314.22,391.026
371,0.968009,317.69,392.594
378,0.964675,321,394.125
385,0.961163,324.147,395.624
392,0.95748,327.133,397.093
399,0.953632,329.957,398.534
406,0.949627,332.622,399.947
413,0.945473,335.128,401.336
420,0.941181,337.48,402.698
427,0.936762,339.683,404.035
434,0.932227,341.742,405.344
441,0.927588,343.663,406.627
448,0.922858,345.453,407.882
455,0.918052,347.122,409.107
462,0.913181,348.677,410.302
469,0.90826,350.127,411.467
476,0.903301,351.481,412.6
483,0.898317,352.749,413.702
490,0.89332,353.94,414.773
497,0.888321,355.061,415.814
504,0.883332,356.123,416.823
511,0.878361,357.131,417.805
518,0.873417,358.094,418.756
525,0.86851,359.019,419.683
532,0.863645,359.912,420.582
539,0.85883,360.779,421.457
546,0.85407,361.625,422.307
553,0.84937,362.454,423.136
560,0.844734,363.272,423.944
567,0.840167,364.082,424.732
574,0.83567,364.887,425.5
581,0.831248,365.692,426.252
588,0.826903,366.498,426.988
595,0.822637,367.309,427.707
602,0.818451,368.126,428.413
609,0.814347,368.953,429.105
616,0.810328,369.791,429.784
623,0.806393,370.642,430.452
630,0.802545,371.507,431.109
637,0.798786,372.39,431.756
644,0.795115,373.291,432.394
651,0.791534,374.212,433.022
658,0.788045,375.155,433.646
665,0.784649,376.122,434.26
672,0.781348,377.114,434.868
679,0.778142,378.133,435.471
686,0.775034,379.18,436.069
693,0.772025,380.259,436.663
700,0.769117,381.37,437.252
707,0.766312,382.515,437.84
714,0.763612,383.697,438.424
721,0.761019,384.917,439.007
728,0.758536,386.178,439.589
735,0.756164,387.482,440.169
742,0.753907,388.831,440.751
749,0.751767,390.227,441.333
756,0.749747,391.672,441.917
763,0.747848,393.168,442.502
770,0.746074,394.716,443.09
777,0.744427,396.318,443.681
784,0.742908,397.976,444.276
791,0.741519,399.688,444.875
798,0.740261,401.454,445.479
805,0.739133,403.273,446.089
812,0.738134,405.142,446.704
819,0.737263,407.057,447.324
826,0.736514,409.01,447.95
833,0.735883,410.995,448.584
840,0.735362,413.002,449.221
847,0.734942,415.02,449.865
854,0.734612,417.036,450.512
861,0.734361,419.037,451.164
868,0.734176,421.012,451.818
875,0.734044,422.948,452.473
882,0.733954,424.836,453.127
889,0.733894,426.669,453.778
896,0.733857,428.442,454.425
903,0.733835,430.153,455.065
910,0.733822,431.803,455.697
917,0.733815,433.393,456.319
924,0.733812,434.926,456.93
931,0.73381,436.404,457.527
938,0.733809,437.831,458.111
945,0.733809,439.209,458.68
952,0.733809,440.541,459.233
959,0.733809,441.829,459.773
966,0.733809,443.076,460.296
973,0.733809,444.282,460.805
980,0.733809,445.449,461.299
987,0.733809,446.579,461.778
994,0.733809,447.674,462.242
1000,0.733809,448.584,462.628
1010,0.733809,450.047,463.251
1020,0.733809,451.444,463.845
1020,0.733809,451.444,463.845
1030,0.733809,452.778,464.414
1040,0.733809,454.052,464.956
1040,0.733809,454.052,464.956
1050,0.733809,455.27,465.475
1060,0.733809,456.432,465.972
1060,0.733809,456.432,465.972
1070,0.733809,457.542,466.445
1080,0.733809,458.602,466.898
1090,0.733809,459.615,467.33
1090,0.733809,459.615,467.33
1100,0.733809,460.582,467.742
1110,0.733809,461.505,468.137
1110,0.733809,461.505,468.137
1120,0.733809,462.386,468.513
1130,0.733809,463.227,468.873
1130,0.733809,463.227,468.873
1140,0.733809,464.031,469.217
1150,0.733809,464.797,469.544
1160,0.733809,465.529,469.857
1160,0.733809,465.529,469.857
1170,0.733809,466.228,470.156
1180,0.733809,466.895,470.442
1180,0.733809,466.895,470.442
1190,0.733809,467.532,470.714
1200,0.733809,468.14,470.974
1200,0.733809,468.14,470.974
1210,0.733809,468.72,471.222
1220,0.733809,469.273,471.459
1230,0.733809,469.802,471.685
1230,0.733809,469.802,471.685
1240,0.733809,470.306,471.901
1250,0.733809,470.787,472.107
1250,0.733809,470.787,472.107
1260,0.733809,471.247,472.304
1270,0.733809,471.685,472.491
1270,0.733809,471.685,472.491
1280,0.733809,472.103,472.671
1290,0.733809,472.502,472.842
1300,0.733809,472.883,473.004
1300,0.733809,472.883,473.004
1310,0.733809,473.247,473.161
1320,0.733809,473.593,473.309
1320,0.733809,473.593,473.309
1330,0.733809,473.924,473.45
1340,0.733809,474.24,473.586
1340,0.733809,474.24,473.586
1350,0.733809,474.541,473.715
1360,0.733809,474.829,473.838
1370,0.733809,475.103,473.956
1370,0.733809,475.103,473.956
1380,0.733809,475.365,474.068
1390,0.733809,475.614,474.175
1390,0.733809,475.614,474.175
1400,0.733809,475.853,474.278
1410,0.733809,476.08,474.375
1410,0.733809,476.08,474.375
1420,0.733809,476.297,474.468
1430,0.733809,476.504,474.556
1440,0.733809,476.701,474.641
1440,0.733809,476.701,474.641
1450,0.733809,476.889,474.722
1460,0.733809,477.069,474.799
1460,0.733809,477.069,474.799
1470,0.733809,477.24,474.872
1480,0.733809,477.404,474.942
1480,0.733809,477.404,474.942
1490,0.733809,477.56,475.009
1500,0.733809,477.708,475.074
1510,0.733809,477.85,475.134
1510,0.733809,477.85,475.134
1520,0.733809,477.986,475.192
1530,0.733809,478.115,475.247
1530,0.733809,478.115,475.247
1540,0.733809,478.238,475.3
1550,0.733809,478.356,475.35
1550,0.733809,478.356,475.35
1560,0.733809,478.468,475.398
1570,0.733809,478.575,475.445
1580,0.733809,478.677,475.489
1580,0.733809,478.677,475.489
1590,0.733809,478.774,475.531
1600,0.733809,478.867,475.57
1600,0.733809,478.867,475.57
1610,0.733809,478.956,475.608
1620,0.733809,479.04,475.644
1620,0.733809,479.04,475.644
1630,0.733809,479.121,475.679
1640,0.733809,479.198,475.712
1650,0.733809,479.271,475.743
1650,0.733809,479.271,475.743
1660,0.733809,479.341,475.773
1670,0.733809,479.408,475.801
1670,0.733809,479.408,475.801
1680,0.733809,479.471,475.83
1690,0.733809,479.532,475.856
1690,0.733809,479.532,475.856
1700,0.733809,479.59,475.881
1710,0.733809,479.645,475.904
1720,0.733809,479.698,475.927
1720,0.733809,479.698,475.927
1730,0.733809,479.748,475.948
1740,0.733809,479.796,475.969
1740,0.733809,479.796,475.969
1750,0.733809,479.842,475.988
1760,0.733809,479.886,476.007
1760,0.733809,479.886,476.007
1770,0.733809,479.927,476.025
1780,0.733809,479.967,476.042
1790,0.733809,480.005,476.058
1790,0.733809,480.005,476.058
1800,0.733809,480.041,476.074
1800,0.733809,480.041,476.074